 Ge2H6_____
 Ge2H6 molecule                                                                                      
       10.0        250    85000.0        500      144.0
       No.     (cm-1)   Density   Sum
         1        0.0  3.000E-01  3.000E+00
         2       10.0  0.000E+00  3.000E+00
         3       20.0  2.000E-01  5.000E+00
         4       30.0  0.000E+00  5.000E+00
         5       40.0  2.000E-01  7.000E+00
         6       50.0  0.000E+00  7.000E+00
         7       60.0  2.000E-01  9.000E+00
         8       70.0  0.000E+00  9.000E+00
         9       80.0  0.000E+00  9.000E+00
        10       90.0  0.000E+00  9.000E+00
        11      100.0  2.000E-01  1.100E+01
        12      110.0  0.000E+00  1.100E+01
        13      120.0  0.000E+00  1.100E+01
        14      130.0  0.000E+00  1.100E+01
        15      140.0  5.000E-01  1.600E+01
        16      150.0  0.000E+00  1.600E+01
        17      160.0  2.000E-01  1.800E+01
        18      170.0  0.000E+00  1.800E+01
        19      180.0  2.000E-01  2.000E+01
        20      190.0  0.000E+00  2.000E+01
        21      200.0  4.000E-01  2.400E+01
        22      210.0  0.000E+00  2.400E+01
        23      220.0  0.000E+00  2.400E+01
        24      230.0  3.000E-01  2.700E+01
        25      240.0  2.000E-01  2.900E+01
        26      250.0  4.000E-01  3.300E+01
        27      260.0  0.000E+00  3.300E+01
        28      270.0  2.000E-01  3.500E+01
        29      280.0  2.000E-01  3.700E+01
        30      290.0  5.000E-01  4.200E+01
        31      300.0  0.000E+00  4.200E+01
        32      310.0  2.000E-01  4.400E+01
        33      320.0  2.000E-01  4.600E+01
        34      330.0  4.000E-01  5.000E+01
        35      340.0  2.000E-01  5.200E+01
        36      350.0  2.000E-01  5.400E+01
        37      360.0  0.000E+00  5.400E+01
        38      370.0  5.000E-01  5.900E+01
        39      380.0  0.000E+00  5.900E+01
        40      390.0  6.000E-01  6.500E+01
        41      400.0  2.000E-01  6.700E+01
        42      410.0  8.000E-01  7.500E+01
        43      420.0  6.000E-01  8.100E+01
        44      430.0  1.300E+00  9.400E+01
        45      440.0  4.000E-01  9.800E+01
        46      450.0  6.000E-01  1.040E+02
        47      460.0  9.000E-01  1.130E+02
        48      470.0  8.000E-01  1.210E+02
        49      480.0  1.000E+00  1.310E+02
        50      490.0  4.000E-01  1.350E+02
        51      500.0  2.000E-01  1.370E+02
        52      510.0  6.000E-01  1.430E+02
        53      520.0  9.000E-01  1.520E+02
        54      530.0  2.000E-01  1.540E+02
        55      540.0  6.000E-01  1.600E+02
        56      550.0  1.200E+00  1.720E+02
        57      560.0  1.400E+00  1.860E+02
        58      570.0  1.000E+00  1.960E+02
        59      580.0  9.000E-01  2.050E+02
        60      590.0  4.000E-01  2.090E+02
        61      600.0  1.100E+00  2.200E+02
        62      610.0  1.000E+00  2.300E+02
        63      620.0  1.800E+00  2.480E+02
        64      630.0  4.000E-01  2.520E+02
        65      640.0  1.000E+00  2.620E+02
        66      650.0  1.000E+00  2.720E+02
        67      660.0  2.100E+00  2.930E+02
        68      670.0  1.000E+00  3.030E+02
        69      680.0  1.000E+00  3.130E+02
        70      690.0  1.500E+00  3.280E+02
        71      700.0  1.800E+00  3.460E+02
        72      710.0  1.800E+00  3.640E+02
        73      720.0  1.300E+00  3.770E+02
        74      730.0  1.000E+00  3.870E+02
        75      740.0  1.600E+00  4.030E+02
        76      750.0  1.900E+00  4.220E+02
        77      760.0  1.500E+00  4.370E+02
        78      770.0  1.500E+00  4.520E+02
        79      780.0  2.000E+00  4.720E+02
        80      790.0  1.600E+00  4.880E+02
        81      800.0  2.000E+00  5.080E+02
        82      810.0  3.100E+00  5.390E+02
        83      820.0  1.500E+00  5.540E+02
        84      830.0  3.900E+00  5.930E+02
        85      840.0  2.500E+00  6.180E+02
        86      850.0  4.400E+00  6.620E+02
        87      860.0  2.100E+00  6.830E+02
        88      870.0  3.600E+00  7.190E+02
        89      880.0  3.000E+00  7.490E+02
        90      890.0  4.100E+00  7.900E+02
        91      900.0  4.500E+00  8.350E+02
        92      910.0  2.900E+00  8.640E+02
        93      920.0  3.300E+00  8.970E+02
        94      930.0  3.200E+00  9.290E+02
        95      940.0  3.400E+00  9.630E+02
        96      950.0  3.700E+00  1.000E+03
        97      960.0  3.500E+00  1.035E+03
        98      970.0  5.600E+00  1.091E+03
        99      980.0  4.000E+00  1.131E+03
       100      990.0  4.500E+00  1.176E+03
       101     1000.0  3.500E+00  1.211E+03
       102     1010.0  5.100E+00  1.262E+03
       103     1020.0  4.400E+00  1.306E+03
       104     1030.0  5.800E+00  1.364E+03
       105     1040.0  6.700E+00  1.431E+03
       106     1050.0  3.400E+00  1.465E+03
       107     1060.0  6.400E+00  1.529E+03
       108     1070.0  4.500E+00  1.574E+03
       109     1080.0  7.800E+00  1.652E+03
       110     1090.0  4.300E+00  1.695E+03
       111     1100.0  7.000E+00  1.765E+03
       112     1110.0  5.700E+00  1.822E+03
       113     1120.0  7.700E+00  1.899E+03
       114     1130.0  7.200E+00  1.971E+03
       115     1140.0  6.100E+00  2.032E+03
       116     1150.0  7.400E+00  2.106E+03
       117     1160.0  7.200E+00  2.178E+03
       118     1170.0  7.400E+00  2.252E+03
       119     1180.0  7.700E+00  2.329E+03
       120     1190.0  8.200E+00  2.411E+03
       121     1200.0  9.500E+00  2.506E+03
       122     1210.0  7.200E+00  2.578E+03
       123     1220.0  1.070E+01  2.685E+03
       124     1230.0  9.100E+00  2.776E+03
       125     1240.0  1.170E+01  2.893E+03
       126     1250.0  1.010E+01  2.994E+03
       127     1260.0  1.200E+01  3.114E+03
       128     1270.0  1.240E+01  3.238E+03
       129     1280.0  9.800E+00  3.336E+03
       130     1290.0  1.420E+01  3.478E+03
       131     1300.0  1.100E+01  3.588E+03
       132     1310.0  1.660E+01  3.754E+03
       133     1320.0  1.350E+01  3.889E+03
       134     1330.0  1.500E+01  4.039E+03
       135     1340.0  1.240E+01  4.163E+03
       136     1350.0  1.360E+01  4.299E+03
       137     1360.0  1.460E+01  4.445E+03
       138     1370.0  1.540E+01  4.599E+03
       139     1380.0  1.670E+01  4.766E+03
       140     1390.0  1.620E+01  4.928E+03
       141     1400.0  1.390E+01  5.067E+03
       142     1410.0  1.530E+01  5.220E+03
       143     1420.0  1.590E+01  5.379E+03
       144     1430.0  1.990E+01  5.578E+03
       145     1440.0  1.710E+01  5.749E+03
       146     1450.0  2.230E+01  5.972E+03
       147     1460.0  1.810E+01  6.153E+03
       148     1470.0  2.050E+01  6.358E+03
       149     1480.0  1.880E+01  6.546E+03
       150     1490.0  2.090E+01  6.755E+03
       151     1500.0  2.240E+01  6.979E+03
       152     1510.0  2.020E+01  7.181E+03
       153     1520.0  2.410E+01  7.422E+03
       154     1530.0  2.140E+01  7.636E+03
       155     1540.0  2.530E+01  7.889E+03
       156     1550.0  2.370E+01  8.126E+03
       157     1560.0  2.490E+01  8.375E+03
       158     1570.0  2.660E+01  8.641E+03
       159     1580.0  2.620E+01  8.903E+03
       160     1590.0  2.750E+01  9.178E+03
       161     1600.0  2.810E+01  9.459E+03
       162     1610.0  3.100E+01  9.769E+03
       163     1620.0  3.000E+01  1.007E+04
       164     1630.0  2.800E+01  1.035E+04
       165     1640.0  3.390E+01  1.069E+04
       166     1650.0  3.080E+01  1.100E+04
       167     1660.0  3.920E+01  1.139E+04
       168     1670.0  3.360E+01  1.172E+04
       169     1680.0  3.940E+01  1.212E+04
       170     1690.0  3.550E+01  1.247E+04
       171     1700.0  3.760E+01  1.285E+04
       172     1710.0  4.340E+01  1.328E+04
       173     1720.0  3.900E+01  1.367E+04
       174     1730.0  5.100E+01  1.418E+04
       175     1740.0  4.050E+01  1.459E+04
       176     1750.0  4.720E+01  1.506E+04
       177     1760.0  4.020E+01  1.546E+04
       178     1770.0  4.700E+01  1.593E+04
       179     1780.0  4.980E+01  1.643E+04
       180     1790.0  4.890E+01  1.692E+04
       181     1800.0  5.450E+01  1.746E+04
       182     1810.0  4.710E+01  1.794E+04
       183     1820.0  4.890E+01  1.842E+04
       184     1830.0  4.960E+01  1.892E+04
       185     1840.0  5.660E+01  1.949E+04
       186     1850.0  5.970E+01  2.008E+04
       187     1860.0  5.460E+01  2.063E+04
       188     1870.0  6.510E+01  2.128E+04
       189     1880.0  5.390E+01  2.182E+04
       190     1890.0  6.730E+01  2.249E+04
       191     1900.0  5.660E+01  2.306E+04
       192     1910.0  7.040E+01  2.376E+04
       193     1920.0  6.520E+01  2.441E+04
       194     1930.0  6.780E+01  2.509E+04
       195     1940.0  7.200E+01  2.581E+04
       196     1950.0  6.650E+01  2.648E+04
       197     1960.0  8.070E+01  2.728E+04
       198     1970.0  6.740E+01  2.796E+04
       199     1980.0  8.280E+01  2.879E+04
       200     1990.0  7.550E+01  2.954E+04
       201     2000.0  8.420E+01  3.038E+04
       202     2010.0  8.270E+01  3.121E+04
       203     2020.0  8.610E+01  3.207E+04
       204     2030.0  9.300E+01  3.300E+04
       205     2040.0  8.480E+01  3.385E+04
       206     2050.0  9.230E+01  3.477E+04
       207     2060.0  9.310E+01  3.570E+04
       208     2070.0  1.014E+02  3.672E+04
       209     2080.0  1.056E+02  3.777E+04
       210     2090.0  1.013E+02  3.879E+04
       211     2100.0  1.128E+02  3.991E+04
       212     2110.0  9.770E+01  4.089E+04
       213     2120.0  1.222E+02  4.211E+04
       214     2130.0  1.107E+02  4.322E+04
       215     2140.0  1.301E+02  4.452E+04
       216     2150.0  1.239E+02  4.576E+04
       217     2160.0  1.202E+02  4.696E+04
       218     2170.0  1.265E+02  4.823E+04
       219     2180.0  1.210E+02  4.944E+04
       220     2190.0  1.418E+02  5.086E+04
       221     2200.0  1.331E+02  5.219E+04
       222     2210.0  1.473E+02  5.366E+04
       223     2220.0  1.399E+02  5.506E+04
       224     2230.0  1.393E+02  5.645E+04
       225     2240.0  1.426E+02  5.788E+04
       226     2250.0  1.489E+02  5.937E+04
       227     2260.0  1.617E+02  6.098E+04
       228     2270.0  1.560E+02  6.254E+04
       229     2280.0  1.609E+02  6.415E+04
       230     2290.0  1.637E+02  6.579E+04
       231     2300.0  1.629E+02  6.742E+04
       232     2310.0  1.743E+02  6.916E+04
       233     2320.0  1.700E+02  7.086E+04
       234     2330.0  1.911E+02  7.277E+04
       235     2340.0  1.767E+02  7.454E+04
       236     2350.0  1.961E+02  7.650E+04
       237     2360.0  1.867E+02  7.837E+04
       238     2370.0  2.001E+02  8.037E+04
       239     2380.0  2.036E+02  8.240E+04
       240     2390.0  1.988E+02  8.439E+04
       241     2400.0  2.156E+02  8.655E+04
       242     2410.0  2.111E+02  8.866E+04
       243     2420.0  2.253E+02  9.091E+04
       244     2430.0  2.236E+02  9.315E+04
       245     2440.0  2.357E+02  9.550E+04
       246     2450.0  2.383E+02  9.789E+04
       247     2460.0  2.323E+02  1.002E+05
       248     2470.0  2.518E+02  1.027E+05
       249     2480.0  2.541E+02  1.053E+05
       250     2490.0  2.716E+02  1.080E+05
       251        0.0  3.000E-01  3.000E+00
       252      341.4  2.000E-01  5.200E+01
       253      682.7  1.000E+00  3.130E+02
       254     1024.1  4.400E+00  1.306E+03
       255     1365.5  1.460E+01  4.445E+03
       256     1706.8  3.760E+01  1.285E+04
       257     2048.2  8.480E+01  3.385E+04
       258     2389.6  2.036E+02  8.240E+04
       259     2730.9  4.344E+02  1.916E+05
       260     3072.3  8.856E+02  4.113E+05
       261     3413.7  1.686E+03  8.420E+05
       262     3755.0  3.164E+03  1.658E+06
       263     4096.4  5.811E+03  3.158E+06
       264     4437.8  1.017E+04  5.837E+06
       265     4779.1  1.758E+04  1.050E+07
       266     5120.5  2.995E+04  1.873E+07
       267     5461.8  4.999E+04  3.215E+07
       268     5803.2  8.102E+04  5.410E+07
       269     6144.6  1.284E+05  8.941E+07
       270     6485.9  2.030E+05  1.453E+08
       271     6827.3  3.156E+05  2.326E+08
       272     7168.7  4.810E+05  3.669E+08
       273     7510.0  7.375E+05  5.786E+08
       274     7851.4  1.101E+06  8.892E+08
       275     8192.8  1.631E+06  1.351E+09
       276     8534.1  2.387E+06  2.030E+09
       277     8875.5  3.459E+06  3.018E+09
       278     9216.9  4.975E+06  4.445E+09
       279     9558.2  7.090E+06  6.487E+09
       280     9899.6  1.002E+07  9.384E+09
       281    10241.0  1.420E+07  1.360E+10
       282    10582.3  1.978E+07  1.936E+10
       283    10923.7  2.736E+07  2.735E+10
       284    11265.1  3.758E+07  3.835E+10
       285    11606.4  5.130E+07  5.341E+10
       286    11947.8  6.962E+07  7.391E+10
       287    12289.2  9.392E+07  1.016E+11
       288    12630.5  1.271E+08  1.402E+11
       289    12971.9  1.696E+08  1.905E+11
       290    13313.3  2.251E+08  2.575E+11
       291    13654.6  2.973E+08  3.461E+11
       292    13996.0  3.908E+08  4.629E+11
       293    14337.3  5.115E+08  6.160E+11
       294    14678.7  6.664E+08  8.160E+11
       295    15020.1  8.711E+08  1.085E+12
       296    15361.4  1.125E+09  1.424E+12
       297    15702.8  1.448E+09  1.860E+12
       298    16044.2  1.856E+09  2.421E+12
       299    16385.5  2.370E+09  3.139E+12
       300    16726.9  3.016E+09  4.054E+12
       301    17068.3  3.824E+09  5.216E+12
       302    17409.6  4.832E+09  6.686E+12
       303    17751.0  6.127E+09  8.602E+12
       304    18092.4  7.692E+09  1.095E+13
       305    18433.7  9.627E+09  1.389E+13
       306    18775.1  1.201E+10  1.757E+13
       307    19116.5  1.494E+10  2.215E+13
       308    19457.8  1.854E+10  2.784E+13
       309    19799.2  2.294E+10  3.489E+13
       310    20140.6  2.847E+10  4.388E+13
       311    20481.9  3.503E+10  5.467E+13
       312    20823.3  4.300E+10  6.793E+13
       313    21164.7  5.264E+10  8.419E+13
       314    21506.0  6.430E+10  1.041E+14
       315    21847.4  7.834E+10  1.283E+14
       316    22188.8  9.523E+10  1.578E+14
       317    22530.1  1.162E+11  1.948E+14
       318    22871.5  1.406E+11  2.384E+14
       319    23212.9  1.697E+11  2.912E+14
       320    23554.2  2.046E+11  3.548E+14
       321    23895.6  2.460E+11  4.314E+14
       322    24236.9  2.952E+11  5.234E+14
       323    24578.3  3.536E+11  6.338E+14
       324    24919.7  4.228E+11  7.658E+14
       325    25261.0  5.071E+11  9.285E+14
       326    25602.4  6.040E+11  1.117E+15
       327    25943.8  7.181E+11  1.342E+15
       328    26285.1  8.522E+11  1.609E+15
       329    26626.5  1.010E+12  1.926E+15
       330    26967.9  1.194E+12  2.301E+15
       331    27309.2  1.410E+12  2.743E+15
       332    27650.6  1.671E+12  3.283E+15
       333    27992.0  1.966E+12  3.901E+15
       334    28333.3  2.311E+12  4.628E+15
       335    28674.7  2.711E+12  5.482E+15
       336    29016.1  3.177E+12  6.484E+15
       337    29357.4  3.717E+12  7.656E+15
       338    29698.8  4.342E+12  9.027E+15
       339    30040.2  5.088E+12  1.068E+16
       340    30381.5  5.927E+12  1.255E+16
       341    30722.9  6.896E+12  1.473E+16
       342    31064.3  8.012E+12  1.727E+16
       343    31405.6  9.296E+12  2.021E+16
       344    31747.0  1.077E+13  2.362E+16
       345    32088.4  1.247E+13  2.758E+16
       346    32429.7  1.441E+13  3.215E+16
       347    32771.1  1.671E+13  3.760E+16
       348    33112.4  1.927E+13  4.371E+16
       349    33453.8  2.219E+13  5.077E+16
       350    33795.2  2.552E+13  5.888E+16
       351    34136.5  2.933E+13  6.821E+16
       352    34477.9  3.366E+13  7.893E+16
       353    34819.3  3.860E+13  9.122E+16
       354    35160.6  4.438E+13  1.057E+17
       355    35502.0  5.077E+13  1.219E+17
       356    35843.4  5.802E+13  1.404E+17
       357    36184.7  6.624E+13  1.616E+17
       358    36526.1  7.555E+13  1.857E+17
       359    36867.5  8.608E+13  2.132E+17
       360    37208.8  9.798E+13  2.445E+17
       361    37550.2  1.118E+14  2.812E+17
       362    37891.6  1.270E+14  3.219E+17
       363    38232.9  1.442E+14  3.680E+17
       364    38574.3  1.635E+14  4.203E+17
       365    38915.7  1.852E+14  4.796E+17
       366    39257.0  2.096E+14  5.468E+17
       367    39598.4  2.370E+14  6.228E+17
       368    39939.8  2.678E+14  7.087E+17
       369    40281.1  3.034E+14  8.087E+17
       370    40622.5  3.422E+14  9.185E+17
       371    40963.9  3.857E+14  1.042E+18
       372    41305.2  4.342E+14  1.182E+18
       373    41646.6  4.886E+14  1.339E+18
       374    41988.0  5.492E+14  1.515E+18
       375    42329.3  6.170E+14  1.714E+18
       376    42670.7  6.949E+14  1.943E+18
       377    43012.0  7.793E+14  2.194E+18
       378    43353.4  8.734E+14  2.475E+18
       379    43694.8  9.780E+14  2.790E+18
       380    44036.1  1.094E+15  3.143E+18
       381    44377.5  1.224E+15  3.537E+18
       382    44718.9  1.368E+15  3.978E+18
       383    45060.2  1.532E+15  4.486E+18
       384    45401.6  1.709E+15  5.037E+18
       385    45743.0  1.906E+15  5.652E+18
       386    46084.3  2.124E+15  6.338E+18
       387    46425.7  2.365E+15  7.101E+18
       388    46767.1  2.632E+15  7.951E+18
       389    47108.4  2.926E+15  8.897E+18
       390    47449.8  3.252E+15  9.948E+18
       391    47791.2  3.623E+15  1.115E+19
       392    48132.5  4.021E+15  1.245E+19
       393    48473.9  4.460E+15  1.389E+19
       394    48815.3  4.944E+15  1.549E+19
       395    49156.6  5.477E+15  1.727E+19
       396    49498.0  6.064E+15  1.923E+19
       397    49839.4  6.710E+15  2.140E+19
       398    50180.7  7.443E+15  2.388E+19
       399    50522.1  8.225E+15  2.655E+19
       400    50863.5  9.086E+15  2.949E+19
       401    51204.8  1.003E+16  3.274E+19
       402    51546.2  1.107E+16  3.633E+19
       403    51887.6  1.220E+16  4.029E+19
       404    52228.9  1.345E+16  4.466E+19
       405    52570.3  1.485E+16  4.961E+19
       406    52911.6  1.635E+16  5.492E+19
       407    53253.0  1.799E+16  6.076E+19
       408    53594.4  1.979E+16  6.719E+19
       409    53935.7  2.175E+16  7.426E+19
       410    54277.1  2.389E+16  8.202E+19
       411    54618.5  2.624E+16  9.055E+19
       412    54959.8  2.879E+16  9.991E+19
       413    55301.2  3.167E+16  1.105E+20
       414    55642.6  3.472E+16  1.218E+20
       415    55983.9  3.805E+16  1.342E+20
       416    56325.3  4.168E+16  1.477E+20
       417    56666.7  4.563E+16  1.626E+20
       418    57008.0  4.993E+16  1.788E+20
       419    57349.4  5.461E+16  1.966E+20
       420    57690.8  5.986E+16  2.167E+20
       421    58032.1  6.541E+16  2.380E+20
       422    58373.5  7.145E+16  2.613E+20
       423    58714.9  7.801E+16  2.867E+20
       424    59056.2  8.513E+16  3.144E+20
       425    59397.6  9.286E+16  3.447E+20
       426    59739.0  1.012E+17  3.777E+20
       427    60080.3  1.106E+17  4.148E+20
       428    60421.7  1.205E+17  4.542E+20
       429    60763.1  1.312E+17  4.970E+20
       430    61104.4  1.428E+17  5.436E+20
       431    61445.8  1.554E+17  5.944E+20
       432    61787.1  1.690E+17  6.496E+20
       433    62128.5  1.838E+17  7.096E+20
       434    62469.9  1.997E+17  7.748E+20
       435    62811.2  2.175E+17  8.478E+20
       436    63152.6  2.361E+17  9.250E+20
       437    63494.0  2.563E+17  1.009E+21
       438    63835.3  2.781E+17  1.100E+21
       439    64176.7  3.016E+17  1.198E+21
       440    64518.1  3.270E+17  1.305E+21
       441    64859.4  3.544E+17  1.421E+21
       442    65200.8  3.848E+17  1.551E+21
       443    65542.2  4.167E+17  1.687E+21
       444    65883.5  4.512E+17  1.835E+21
       445    66224.9  4.882E+17  1.994E+21
       446    66566.3  5.282E+17  2.167E+21
       447    66907.6  5.712E+17  2.354E+21
       448    67249.0  6.174E+17  2.556E+21
       449    67590.4  6.688E+17  2.782E+21
       450    67931.7  7.224E+17  3.018E+21
       451    68273.1  7.802E+17  3.274E+21
       452    68614.5  8.422E+17  3.550E+21
       453    68955.8  9.089E+17  3.848E+21
       454    69297.2  9.805E+17  4.169E+21
       455    69638.6  1.057E+18  4.516E+21
       456    69979.9  1.140E+18  4.890E+21
       457    70321.3  1.231E+18  5.305E+21
       458    70662.7  1.327E+18  5.740E+21
       459    71004.0  1.429E+18  6.209E+21
       460    71345.4  1.539E+18  6.714E+21
       461    71686.7  1.656E+18  7.257E+21
       462    72028.1  1.782E+18  7.842E+21
       463    72369.5  1.917E+18  8.471E+21
       464    72710.8  2.066E+18  9.169E+21
       465    73052.2  2.221E+18  9.898E+21
       466    73393.6  2.387E+18  1.068E+22
       467    73734.9  2.564E+18  1.152E+22
       468    74076.3  2.754E+18  1.243E+22
       469    74417.7  2.958E+18  1.340E+22
       470    74759.0  3.175E+18  1.444E+22
       471    75100.4  3.414E+18  1.560E+22
       472    75441.8  3.663E+18  1.680E+22
       473    75783.1  3.929E+18  1.809E+22
       474    76124.5  4.212E+18  1.948E+22
       475    76465.9  4.515E+18  2.096E+22
       476    76807.2  4.839E+18  2.255E+22
       477    77148.6  5.184E+18  2.426E+22
       478    77490.0  5.552E+18  2.608E+22
       479    77831.3  5.957E+18  2.810E+22
       480    78172.7  6.377E+18  3.020E+22
       481    78514.1  6.825E+18  3.244E+22
       482    78855.4  7.302E+18  3.485E+22
       483    79196.8  7.810E+18  3.742E+22
       484    79538.2  8.352E+18  4.017E+22
       485    79879.5  8.929E+18  4.311E+22
       486    80220.9  9.562E+18  4.634E+22
       487    80562.2  1.022E+19  4.971E+22
       488    80903.6  1.091E+19  5.330E+22
       489    81245.0  1.166E+19  5.714E+22
       490    81586.3  1.245E+19  6.124E+22
       491    81927.7  1.329E+19  6.562E+22
       492    82269.1  1.418E+19  7.029E+22
       493    82610.4  1.516E+19  7.543E+22
       494    82951.8  1.617E+19  8.076E+22
       495    83293.2  1.724E+19  8.644E+22
       496    83634.5  1.838E+19  9.250E+22
       497    83975.9  1.959E+19  9.896E+22
       498    84317.3  2.088E+19  1.058E+23
       499    84658.6  2.225E+19  1.132E+23
       500    85000.0  2.370E+19  1.210E+23
