**************INPUT DATA SUMMARY**************
%%%%%%%%%%%%%%%%%%%%%%%%%%%%%%%%%%%%%%%%%%%%%%%%%%%%%%%%%%%%%%%%%%%%%%%%%%%%%%

                      parsctst-2021.0 

                         Feb 2021

 Authors: sctst:
          John R. Barker    jrbarker@umich.ed
          Thanh Lam Nguyen  nguyenlt@cm.utexas.edu

          parsctst: 
          Chiara Aieta      chiara.aieta@unimi.it
          Fabio Gabas       fabio.gabas@unimi.it
          Michele Ceotto    michele.ceotto@unimi.it

       http://clasp-research.engin.umich.edu/multiwell/

%%%%%%%%%%%%%%%%%%%%%%%%%%%%%%%%%%%%%%%%%%%%%%%%%%%%%%%%%%%%%%%%%%%%%%%%%%%%%%


Suggested Literature Citation:

    a) MultiWell-2021.0 Software, Feb 2021, designed and
       maintained by J.R. Barker with contributor T.L. Nguyen,
       J.F. Stanton, C. Aieta, M. Ceotto, F. Gabas, T.J.D. Kumar
       C.G.L. Li, L.L. Lohr, A. Maranzana, N.F. Ortiz, J.M. Preses
       J.M. Simmie, J.A. Sonk, and P.J. Stimac, University of Michigan,
       Ann Arbor, MI; http://clasp-research.engin.umich.edu/multiwell/.

    b) John R. Barker, Int. J. Chem. Kinetics, 33, 232-45
       (2001).

    c) John R. Barker, Int. J. Chem. Kinetics, 41, 748-763
       (2009).

    d) W. H. Miller, J. Chem. Phys. 62, 1899 (1975).

    e) W. H. Miller, Faraday Discuss. Chem. Soc. 62, 40 (1977).

    f) W. H. Miller, R. Hernandez, N. C. Handy, D. 
       Jayatilaka, and A. Willets, Chem. Phys. Letters
       172, 62 (1990).

    g) R. Hernandez and W. H. Miller, Chem. Phys. Lett. 214
       (2), 129 (1993).

    h) T. L. Nguyen, J. F. Stanton, and J. R. Barker,
       Chem. Phys. Letters 499, 9 (2010).

    i) T. L. Nguyen, J. F. Stanton, and J. R. Barker,
       J. Phys. Chem. A 115, 5118 (2011).

    l) C. Aieta, F. Gabas, M. Ceotto J. Chem. Theory Comput.
       2019, DOI:10.1021/acs.jctc.8b01286 (2019)

%%%%%%%%%%%%%%%%%%%%%%%%%%%%%%%%%%%%%%%%%%%%%%%%%%%%%%%%%%%%%%%%%%%%%%%%%%%%%%


T-52ch4   
Transition state for normal isotopologue Cl + CH4                                                   
CCSD(T); full aVTZ                                                                                  

....................................................
          2021/02/03   12:22:31.733   (Local Time)
          year/mm/dd   hr:mi:second
                 CPU :        0.047 s (  0.000 hr)
....................................................
 11 Vibrational Frequencies (cm-1)  
  We; E = We*(v+1/2) +...; Wo: E = W0*v +...;  0<->1 fund.  
  De: BDE for Separable Morse oscillator [0.0 if non-Morse]

  No.     We         Wo      0-1_Fund.   De(cm-1)
    1    365.112    378.776    391.493        0.0
    2    365.112    378.508    391.286        0.0
    3    513.758    525.871    540.503        0.0
    4    929.643    946.003    977.326        0.0
    5    929.643    946.304    977.525        0.0
    6   1197.895   1251.230   1249.252   197963.6
    7   1436.493   1404.651   1395.609    54551.6
    8   1436.493   1404.858   1395.844    54737.2
    9   3081.716   2981.069   2963.404   125768.7
   10   3241.832   3126.455   3094.966    77605.5
   11   3241.832   3126.159   3094.695    77649.7

 Ave:   1521.775   1497.262   1497.446

Anharmonicity Matrix (cm-1)
         1         2         3         4         5         6         7         8         9        10        11
  1    12.717     7.734   -34.275    29.341     2.237    -1.916    -0.426     4.014    -1.069    -1.632    -2.114
  2     7.734    12.779   -34.394     1.998    29.562    -2.709     3.948    -0.464    -1.070    -1.789    -1.584
  3   -34.275   -34.394    14.632   -70.391   -70.391   193.691    -2.889    -2.889     3.166     6.668     6.668
  4    29.341     1.998   -70.391    31.324    50.412   -20.103     2.478     1.409    -5.347   -12.226    -7.498
  5     2.237    29.562   -70.391    50.412    31.221   -19.991     1.432     2.632    -5.296    -7.432   -12.285
  6    -1.916    -2.709   193.691   -20.103   -19.991    -1.977    -5.284    -5.284    -4.405   -11.688   -11.688
  7    -0.426     3.948    -2.889     2.478     1.432    -5.284    -9.042    -8.904    -4.782   -11.378   -19.794
  8     4.014    -0.464    -2.889     1.409     2.632    -5.284    -8.904    -9.014    -4.698   -19.618   -11.439
  9    -1.069    -1.070     3.166    -5.347    -5.296    -4.405    -4.782    -4.698   -17.665   -71.233   -71.233
 10    -1.632    -1.789     6.668   -12.226    -7.432   -11.688   -11.378   -19.618   -71.233   -31.488   -37.449
 11    -2.114    -1.584     6.668    -7.498   -12.285   -11.688   -19.794   -11.439   -71.233   -37.449   -31.465

             Partial ZPEanh =   8302.353 cm-1  (omits Go from VPT2 and separable D.O.F.)



  1 SEPARABLE DEGREES OF FREEDOM

   12  Symm-Top  2D-Moment =   89.91 amua, B2 =  0.1875 cm-1  ;  1D-Moment =    3.43 amua, B1 =  4.9208 cm-1  ;  Symm. No. = 3

 ------------------------------
 Parallel execution parameters:
 ------------------------------
Number of windows:   4
Number of walkers in each window:   1
Overlap:  70.00%
Flatness criterion: 0.600
 Additional writinig enabled.
Random number generator seed modifier:   0

 --- END INPUT ---
     REACTION PARAMETERS
     Forward and reverse barriers (+ZPE):   Vf           Vr
                                         13.954      10.344  KJOU  
                                       1166.460     864.688  cm-1

     VPT4A: VPT2 + VPT4 (Eq. 42 in Stanton, 2016)

     Imaginary frequency (cm-1)    =    1026.07
     Diagonal anharmonicity (cm-1) =    -311.87

     Off-Diagonal anharmonicities (cm-1):

         CFOUR style    or   GAUSSIAN style
      k     X(k,f)      or      i*X(k,f) 

      1      53.98i              -53.98
      2      53.98i              -53.98
      3    -318.37i              318.37
      4     175.92i             -175.92
      5     175.92i             -175.92
      6    -195.34i              195.34
      7       8.15i               -8.15
      8       8.15i               -8.15
      9      -6.60i                6.60
     10     -14.49i               14.49
     11     -14.49i               14.49


TOTAL ZPEanh:   8302.353 cm-1 for all coupled & separable D.O.F.; omits the reaction coordinate and Go from VPT2.

**************INPUT DATA SUMMARY**************
 T-52ch4
 Transition state for normal isotopologue Cl + CH4                                                   
        5.0       2000    30000.0       2500      365.1
       No.     (cm-1)   Density   Sum(E=0 at reactant ZPE in exothermic direction)
         1        0.0  0.000E+00  0.000E+00
         2        5.0  0.000E+00  0.000E+00
         3       10.0  0.000E+00  0.000E+00
         4       15.0  0.000E+00  0.000E+00
         5       20.0  0.000E+00  0.000E+00
         6       25.0  0.000E+00  0.000E+00
         7       30.0  0.000E+00  0.000E+00
         8       35.0  0.000E+00  0.000E+00
         9       40.0  0.000E+00  0.000E+00
        10       45.0  0.000E+00  0.000E+00
        11       50.0  0.000E+00  0.000E+00
        12       55.0  0.000E+00  0.000E+00
        13       60.0  0.000E+00  0.000E+00
        14       65.0  0.000E+00  0.000E+00
        15       70.0  0.000E+00  0.000E+00
        16       75.0  0.000E+00  0.000E+00
        17       80.0  0.000E+00  0.000E+00
        18       85.0  0.000E+00  0.000E+00
        19       90.0  0.000E+00  0.000E+00
        20       95.0  0.000E+00  0.000E+00
        21      100.0  0.000E+00  0.000E+00
        22      105.0  0.000E+00  0.000E+00
        23      110.0  0.000E+00  0.000E+00
        24      115.0  0.000E+00  0.000E+00
        25      120.0  0.000E+00  0.000E+00
        26      125.0  0.000E+00  0.000E+00
        27      130.0  0.000E+00  0.000E+00
        28      135.0  0.000E+00  0.000E+00
        29      140.0  0.000E+00  0.000E+00
        30      145.0  0.000E+00  0.000E+00
        31      150.0  0.000E+00  0.000E+00
        32      155.0  8.378E-05  4.189E-04
        33      160.0  3.589E-04  2.213E-03
        34      165.0  7.300E-04  5.863E-03
        35      170.0  1.187E-03  1.180E-02
        36      175.0  1.773E-03  2.066E-02
        37      180.0  2.431E-03  3.282E-02
        38      185.0  3.108E-03  4.836E-02
        39      190.0  3.697E-03  6.684E-02
        40      195.0  4.363E-03  8.866E-02
        41      200.0  5.349E-03  1.154E-01
        42      205.0  6.550E-03  1.482E-01
        43      210.0  7.903E-03  1.877E-01
        44      215.0  9.031E-03  2.328E-01
        45      220.0  1.027E-02  2.842E-01
        46      225.0  1.194E-02  3.439E-01
        47      230.0  1.358E-02  4.118E-01
        48      235.0  1.491E-02  4.863E-01
        49      240.0  1.697E-02  5.712E-01
        50      245.0  1.940E-02  6.682E-01
        51      250.0  2.141E-02  7.752E-01
        52      255.0  2.401E-02  8.953E-01
        53      260.0  2.682E-02  1.029E+00
        54      265.0  2.904E-02  1.175E+00
        55      270.0  3.260E-02  1.338E+00
        56      275.0  3.629E-02  1.519E+00
        57      280.0  3.937E-02  1.716E+00
        58      285.0  4.319E-02  1.932E+00
        59      290.0  4.748E-02  2.169E+00
        60      295.0  5.173E-02  2.428E+00
        61      300.0  5.650E-02  2.710E+00
        62      305.0  6.134E-02  3.017E+00
        63      310.0  6.649E-02  3.350E+00
        64      315.0  7.188E-02  3.709E+00
        65      320.0  7.736E-02  4.096E+00
        66      325.0  8.411E-02  4.516E+00
        67      330.0  9.061E-02  4.969E+00
        68      335.0  9.828E-02  5.461E+00
        69      340.0  1.056E-01  5.989E+00
        70      345.0  1.134E-01  6.556E+00
        71      350.0  1.221E-01  7.166E+00
        72      355.0  1.304E-01  7.819E+00
        73      360.0  1.412E-01  8.524E+00
        74      365.0  1.504E-01  9.277E+00
        75      370.0  1.619E-01  1.009E+01
        76      375.0  1.726E-01  1.095E+01
        77      380.0  1.822E-01  1.186E+01
        78      385.0  1.963E-01  1.284E+01
        79      390.0  2.089E-01  1.389E+01
        80      395.0  2.238E-01  1.500E+01
        81      400.0  2.371E-01  1.619E+01
        82      405.0  2.516E-01  1.745E+01
        83      410.0  2.692E-01  1.879E+01
        84      415.0  2.856E-01  2.022E+01
        85      420.0  3.025E-01  2.174E+01
        86      425.0  3.214E-01  2.334E+01
        87      430.0  3.403E-01  2.504E+01
        88      435.0  3.600E-01  2.684E+01
        89      440.0  3.824E-01  2.876E+01
        90      445.0  4.044E-01  3.078E+01
        91      450.0  4.282E-01  3.292E+01
        92      455.0  4.519E-01  3.518E+01
        93      460.0  4.766E-01  3.756E+01
        94      465.0  5.052E-01  4.009E+01
        95      470.0  5.324E-01  4.275E+01
        96      475.0  5.603E-01  4.555E+01
        97      480.0  5.926E-01  4.851E+01
        98      485.0  6.251E-01  5.164E+01
        99      490.0  6.583E-01  5.493E+01
       100      495.0  6.943E-01  5.840E+01
       101      500.0  7.305E-01  6.206E+01
       102      505.0  7.671E-01  6.589E+01
       103      510.0  8.083E-01  6.993E+01
       104      515.0  8.504E-01  7.418E+01
       105      520.0  8.929E-01  7.865E+01
       106      525.0  9.379E-01  8.334E+01
       107      530.0  9.855E-01  8.827E+01
       108      535.0  1.035E+00  9.344E+01
       109      540.0  1.085E+00  9.886E+01
       110      545.0  1.136E+00  1.045E+02
       111      550.0  1.193E+00  1.105E+02
       112      555.0  1.250E+00  1.168E+02
       113      560.0  1.309E+00  1.233E+02
       114      565.0  1.371E+00  1.302E+02
       115      570.0  1.434E+00  1.373E+02
       116      575.0  1.499E+00  1.448E+02
       117      580.0  1.569E+00  1.527E+02
       118      585.0  1.642E+00  1.609E+02
       119      590.0  1.714E+00  1.694E+02
       120      595.0  1.791E+00  1.784E+02
       121      600.0  1.871E+00  1.878E+02
       122      605.0  1.951E+00  1.975E+02
       123      610.0  2.036E+00  2.077E+02
       124      615.0  2.123E+00  2.183E+02
       125      620.0  2.215E+00  2.294E+02
       126      625.0  2.307E+00  2.409E+02
       127      630.0  2.401E+00  2.529E+02
       128      635.0  2.504E+00  2.654E+02
       129      640.0  2.606E+00  2.785E+02
       130      645.0  2.712E+00  2.920E+02
       131      650.0  2.821E+00  3.061E+02
       132      655.0  2.936E+00  3.208E+02
       133      660.0  3.051E+00  3.361E+02
       134      665.0  3.168E+00  3.519E+02
       135      670.0  3.295E+00  3.684E+02
       136      675.0  3.419E+00  3.855E+02
       137      680.0  3.554E+00  4.033E+02
       138      685.0  3.683E+00  4.217E+02
       139      690.0  3.818E+00  4.408E+02
       140      695.0  3.968E+00  4.606E+02
       141      700.0  4.108E+00  4.811E+02
       142      705.0  4.258E+00  5.024E+02
       143      710.0  4.408E+00  5.245E+02
       144      715.0  4.570E+00  5.473E+02
       145      720.0  4.730E+00  5.710E+02
       146      725.0  4.891E+00  5.954E+02
       147      730.0  5.062E+00  6.207E+02
       148      735.0  5.239E+00  6.469E+02
       149      740.0  5.413E+00  6.740E+02
       150      745.0  5.591E+00  7.020E+02
       151      750.0  5.782E+00  7.309E+02
       152      755.0  5.970E+00  7.607E+02
       153      760.0  6.166E+00  7.915E+02
       154      765.0  6.362E+00  8.234E+02
       155      770.0  6.565E+00  8.562E+02
       156      775.0  6.775E+00  8.901E+02
       157      780.0  6.983E+00  9.250E+02
       158      785.0  7.196E+00  9.609E+02
       159      790.0  7.421E+00  9.981E+02
       160      795.0  7.645E+00  1.036E+03
       161      800.0  7.873E+00  1.076E+03
       162      805.0  8.107E+00  1.116E+03
       163      810.0  8.344E+00  1.158E+03
       164      815.0  8.587E+00  1.201E+03
       165      820.0  8.835E+00  1.245E+03
       166      825.0  9.085E+00  1.290E+03
       167      830.0  9.343E+00  1.337E+03
       168      835.0  9.602E+00  1.385E+03
       169      840.0  9.868E+00  1.434E+03
       170      845.0  1.014E+01  1.485E+03
       171      850.0  1.041E+01  1.537E+03
       172      855.0  1.069E+01  1.591E+03
       173      860.0  1.098E+01  1.646E+03
       174      865.0  1.126E+01  1.702E+03
       175      870.0  1.156E+01  1.760E+03
       176      875.0  1.185E+01  1.819E+03
       177      880.0  1.215E+01  1.880E+03
       178      885.0  1.246E+01  1.942E+03
       179      890.0  1.277E+01  2.006E+03
       180      895.0  1.309E+01  2.071E+03
       181      900.0  1.341E+01  2.138E+03
       182      905.0  1.373E+01  2.207E+03
       183      910.0  1.406E+01  2.277E+03
       184      915.0  1.440E+01  2.349E+03
       185      920.0  1.473E+01  2.423E+03
       186      925.0  1.508E+01  2.498E+03
       187      930.0  1.543E+01  2.575E+03
       188      935.0  1.578E+01  2.654E+03
       189      940.0  1.614E+01  2.735E+03
       190      945.0  1.650E+01  2.818E+03
       191      950.0  1.687E+01  2.902E+03
       192      955.0  1.724E+01  2.988E+03
       193      960.0  1.762E+01  3.076E+03
       194      965.0  1.801E+01  3.166E+03
       195      970.0  1.839E+01  3.258E+03
       196      975.0  1.878E+01  3.352E+03
       197      980.0  1.918E+01  3.448E+03
       198      985.0  1.959E+01  3.546E+03
       199      990.0  2.000E+01  3.646E+03
       200      995.0  2.041E+01  3.748E+03
       201     1000.0  2.083E+01  3.852E+03
       202     1005.0  2.126E+01  3.958E+03
       203     1010.0  2.169E+01  4.067E+03
       204     1015.0  2.212E+01  4.177E+03
       205     1020.0  2.256E+01  4.290E+03
       206     1025.0  2.302E+01  4.405E+03
       207     1030.0  2.346E+01  4.523E+03
       208     1035.0  2.392E+01  4.642E+03
       209     1040.0  2.439E+01  4.764E+03
       210     1045.0  2.485E+01  4.888E+03
       211     1050.0  2.533E+01  5.015E+03
       212     1055.0  2.580E+01  5.144E+03
       213     1060.0  2.629E+01  5.276E+03
       214     1065.0  2.679E+01  5.410E+03
       215     1070.0  2.728E+01  5.546E+03
       216     1075.0  2.778E+01  5.685E+03
       217     1080.0  2.830E+01  5.826E+03
       218     1085.0  2.881E+01  5.970E+03
       219     1090.0  2.932E+01  6.117E+03
       220     1095.0  2.987E+01  6.266E+03
       221     1100.0  3.041E+01  6.418E+03
       222     1105.0  3.096E+01  6.573E+03
       223     1110.0  3.151E+01  6.731E+03
       224     1115.0  3.207E+01  6.891E+03
       225     1120.0  3.266E+01  7.054E+03
       226     1125.0  3.324E+01  7.221E+03
       227     1130.0  3.381E+01  7.390E+03
       228     1135.0  3.442E+01  7.562E+03
       229     1140.0  3.502E+01  7.737E+03
       230     1145.0  3.563E+01  7.915E+03
       231     1150.0  3.629E+01  8.096E+03
       232     1155.0  3.690E+01  8.281E+03
       233     1160.0  3.756E+01  8.469E+03
       234     1165.0  3.820E+01  8.660E+03
       235     1170.0  3.887E+01  8.854E+03
       236     1175.0  3.953E+01  9.052E+03
       237     1180.0  4.020E+01  9.253E+03
       238     1185.0  4.094E+01  9.457E+03
       239     1190.0  4.159E+01  9.665E+03
       240     1195.0  4.236E+01  9.877E+03
       241     1200.0  4.304E+01  1.009E+04
       242     1205.0  4.375E+01  1.031E+04
       243     1210.0  4.457E+01  1.053E+04
       244     1215.0  4.529E+01  1.076E+04
       245     1220.0  4.610E+01  1.099E+04
       246     1225.0  4.683E+01  1.123E+04
       247     1230.0  4.765E+01  1.146E+04
       248     1235.0  4.849E+01  1.171E+04
       249     1240.0  4.928E+01  1.195E+04
       250     1245.0  5.011E+01  1.220E+04
       251     1250.0  5.097E+01  1.246E+04
       252     1255.0  5.179E+01  1.272E+04
       253     1260.0  5.266E+01  1.298E+04
       254     1265.0  5.359E+01  1.325E+04
       255     1270.0  5.445E+01  1.352E+04
       256     1275.0  5.543E+01  1.380E+04
       257     1280.0  5.627E+01  1.408E+04
       258     1285.0  5.722E+01  1.436E+04
       259     1290.0  5.823E+01  1.466E+04
       260     1295.0  5.911E+01  1.495E+04
       261     1300.0  6.014E+01  1.525E+04
       262     1305.0  6.113E+01  1.556E+04
       263     1310.0  6.217E+01  1.587E+04
       264     1315.0  6.314E+01  1.618E+04
       265     1320.0  6.415E+01  1.650E+04
       266     1325.0  6.524E+01  1.683E+04
       267     1330.0  6.623E+01  1.716E+04
       268     1335.0  6.743E+01  1.750E+04
       269     1340.0  6.841E+01  1.784E+04
       270     1345.0  6.952E+01  1.819E+04
       271     1350.0  7.070E+01  1.854E+04
       272     1355.0  7.180E+01  1.890E+04
       273     1360.0  7.292E+01  1.927E+04
       274     1365.0  7.407E+01  1.964E+04
       275     1370.0  7.524E+01  2.001E+04
       276     1375.0  7.644E+01  2.039E+04
       277     1380.0  7.761E+01  2.078E+04
       278     1385.0  7.885E+01  2.118E+04
       279     1390.0  8.010E+01  2.158E+04
       280     1395.0  8.129E+01  2.198E+04
       281     1400.0  8.253E+01  2.240E+04
       282     1405.0  8.388E+01  2.282E+04
       283     1410.0  8.512E+01  2.324E+04
       284     1415.0  8.636E+01  2.367E+04
       285     1420.0  8.775E+01  2.411E+04
       286     1425.0  8.909E+01  2.456E+04
       287     1430.0  9.038E+01  2.501E+04
       288     1435.0  9.180E+01  2.547E+04
       289     1440.0  9.308E+01  2.593E+04
       290     1445.0  9.450E+01  2.641E+04
       291     1450.0  9.593E+01  2.689E+04
       292     1455.0  9.728E+01  2.737E+04
       293     1460.0  9.881E+01  2.787E+04
       294     1465.0  1.001E+02  2.837E+04
       295     1470.0  1.017E+02  2.888E+04
       296     1475.0  1.032E+02  2.939E+04
       297     1480.0  1.046E+02  2.991E+04
       298     1485.0  1.061E+02  3.044E+04
       299     1490.0  1.076E+02  3.098E+04
       300     1495.0  1.092E+02  3.153E+04
       301     1500.0  1.107E+02  3.208E+04
       302     1505.0  1.123E+02  3.264E+04
       303     1510.0  1.138E+02  3.321E+04
       304     1515.0  1.155E+02  3.379E+04
       305     1520.0  1.171E+02  3.438E+04
       306     1525.0  1.187E+02  3.497E+04
       307     1530.0  1.203E+02  3.557E+04
       308     1535.0  1.220E+02  3.618E+04
       309     1540.0  1.237E+02  3.680E+04
       310     1545.0  1.253E+02  3.742E+04
       311     1550.0  1.270E+02  3.806E+04
       312     1555.0  1.288E+02  3.870E+04
       313     1560.0  1.306E+02  3.936E+04
       314     1565.0  1.322E+02  4.002E+04
       315     1570.0  1.340E+02  4.069E+04
       316     1575.0  1.359E+02  4.137E+04
       317     1580.0  1.378E+02  4.206E+04
       318     1585.0  1.394E+02  4.275E+04
       319     1590.0  1.415E+02  4.346E+04
       320     1595.0  1.433E+02  4.418E+04
       321     1600.0  1.451E+02  4.490E+04
       322     1605.0  1.472E+02  4.564E+04
       323     1610.0  1.489E+02  4.638E+04
       324     1615.0  1.512E+02  4.714E+04
       325     1620.0  1.529E+02  4.791E+04
       326     1625.0  1.549E+02  4.868E+04
       327     1630.0  1.571E+02  4.947E+04
       328     1635.0  1.591E+02  5.026E+04
       329     1640.0  1.613E+02  5.107E+04
       330     1645.0  1.630E+02  5.188E+04
       331     1650.0  1.654E+02  5.271E+04
       332     1655.0  1.676E+02  5.355E+04
       333     1660.0  1.696E+02  5.439E+04
       334     1665.0  1.718E+02  5.525E+04
       335     1670.0  1.741E+02  5.612E+04
       336     1675.0  1.762E+02  5.701E+04
       337     1680.0  1.784E+02  5.790E+04
       338     1685.0  1.809E+02  5.880E+04
       339     1690.0  1.830E+02  5.972E+04
       340     1695.0  1.854E+02  6.064E+04
       341     1700.0  1.877E+02  6.158E+04
       342     1705.0  1.900E+02  6.253E+04
       343     1710.0  1.925E+02  6.349E+04
       344     1715.0  1.948E+02  6.447E+04
       345     1720.0  1.973E+02  6.545E+04
       346     1725.0  1.996E+02  6.645E+04
       347     1730.0  2.023E+02  6.746E+04
       348     1735.0  2.048E+02  6.849E+04
       349     1740.0  2.073E+02  6.952E+04
       350     1745.0  2.097E+02  7.057E+04
       351     1750.0  2.122E+02  7.163E+04
       352     1755.0  2.151E+02  7.271E+04
       353     1760.0  2.175E+02  7.380E+04
       354     1765.0  2.201E+02  7.490E+04
       355     1770.0  2.230E+02  7.601E+04
       356     1775.0  2.255E+02  7.714E+04
       357     1780.0  2.284E+02  7.828E+04
       358     1785.0  2.309E+02  7.944E+04
       359     1790.0  2.338E+02  8.061E+04
       360     1795.0  2.365E+02  8.179E+04
       361     1800.0  2.393E+02  8.298E+04
       362     1805.0  2.423E+02  8.420E+04
       363     1810.0  2.450E+02  8.542E+04
       364     1815.0  2.480E+02  8.666E+04
       365     1820.0  2.507E+02  8.791E+04
       366     1825.0  2.538E+02  8.918E+04
       367     1830.0  2.568E+02  9.047E+04
       368     1835.0  2.597E+02  9.177E+04
       369     1840.0  2.628E+02  9.308E+04
       370     1845.0  2.657E+02  9.441E+04
       371     1850.0  2.688E+02  9.575E+04
       372     1855.0  2.721E+02  9.711E+04
       373     1860.0  2.751E+02  9.849E+04
       374     1865.0  2.783E+02  9.988E+04
       375     1870.0  2.813E+02  1.013E+05
       376     1875.0  2.846E+02  1.027E+05
       377     1880.0  2.879E+02  1.041E+05
       378     1885.0  2.910E+02  1.056E+05
       379     1890.0  2.944E+02  1.071E+05
       380     1895.0  2.976E+02  1.086E+05
       381     1900.0  3.013E+02  1.101E+05
       382     1905.0  3.045E+02  1.116E+05
       383     1910.0  3.081E+02  1.131E+05
       384     1915.0  3.119E+02  1.147E+05
       385     1920.0  3.153E+02  1.163E+05
       386     1925.0  3.195E+02  1.179E+05
       387     1930.0  3.231E+02  1.195E+05
       388     1935.0  3.271E+02  1.211E+05
       389     1940.0  3.308E+02  1.228E+05
       390     1945.0  3.346E+02  1.244E+05
       391     1950.0  3.388E+02  1.261E+05
       392     1955.0  3.431E+02  1.279E+05
       393     1960.0  3.475E+02  1.296E+05
       394     1965.0  3.507E+02  1.313E+05
       395     1970.0  3.554E+02  1.331E+05
       396     1975.0  3.598E+02  1.349E+05
       397     1980.0  3.643E+02  1.367E+05
       398     1985.0  3.677E+02  1.386E+05
       399     1990.0  3.726E+02  1.404E+05
       400     1995.0  3.774E+02  1.423E+05
       401     2000.0  3.812E+02  1.442E+05
       402     2005.0  3.864E+02  1.462E+05
       403     2010.0  3.906E+02  1.481E+05
       404     2015.0  3.949E+02  1.501E+05
       405     2020.0  4.001E+02  1.521E+05
       406     2025.0  4.047E+02  1.541E+05
       407     2030.0  4.093E+02  1.562E+05
       408     2035.0  4.141E+02  1.582E+05
       409     2040.0  4.191E+02  1.603E+05
       410     2045.0  4.237E+02  1.625E+05
       411     2050.0  4.290E+02  1.646E+05
       412     2055.0  4.334E+02  1.668E+05
       413     2060.0  4.388E+02  1.690E+05
       414     2065.0  4.432E+02  1.712E+05
       415     2070.0  4.479E+02  1.734E+05
       416     2075.0  4.541E+02  1.757E+05
       417     2080.0  4.581E+02  1.780E+05
       418     2085.0  4.648E+02  1.803E+05
       419     2090.0  4.687E+02  1.826E+05
       420     2095.0  4.745E+02  1.850E+05
       421     2100.0  4.798E+02  1.874E+05
       422     2105.0  4.844E+02  1.898E+05
       423     2110.0  4.918E+02  1.923E+05
       424     2115.0  4.951E+02  1.948E+05
       425     2120.0  5.024E+02  1.973E+05
       426     2125.0  5.065E+02  1.998E+05
       427     2130.0  5.109E+02  2.024E+05
       428     2135.0  5.194E+02  2.050E+05
       429     2140.0  5.225E+02  2.076E+05
       430     2145.0  5.309E+02  2.102E+05
       431     2150.0  5.338E+02  2.129E+05
       432     2155.0  5.409E+02  2.156E+05
       433     2160.0  5.476E+02  2.183E+05
       434     2165.0  5.522E+02  2.211E+05
       435     2170.0  5.584E+02  2.239E+05
       436     2175.0  5.646E+02  2.267E+05
       437     2180.0  5.698E+02  2.296E+05
       438     2185.0  5.763E+02  2.325E+05
       439     2190.0  5.831E+02  2.354E+05
       440     2195.0  5.882E+02  2.383E+05
       441     2200.0  5.961E+02  2.413E+05
       442     2205.0  6.008E+02  2.443E+05
       443     2210.0  6.079E+02  2.473E+05
       444     2215.0  6.159E+02  2.504E+05
       445     2220.0  6.200E+02  2.535E+05
       446     2225.0  6.277E+02  2.567E+05
       447     2230.0  6.355E+02  2.598E+05
       448     2235.0  6.415E+02  2.630E+05
       449     2240.0  6.484E+02  2.663E+05
       450     2245.0  6.564E+02  2.696E+05
       451     2250.0  6.633E+02  2.729E+05
       452     2255.0  6.692E+02  2.762E+05
       453     2260.0  6.787E+02  2.796E+05
       454     2265.0  6.845E+02  2.830E+05
       455     2270.0  6.915E+02  2.865E+05
       456     2275.0  6.998E+02  2.900E+05
       457     2280.0  7.082E+02  2.935E+05
       458     2285.0  7.154E+02  2.971E+05
       459     2290.0  7.214E+02  3.007E+05
       460     2295.0  7.297E+02  3.044E+05
       461     2300.0  7.397E+02  3.081E+05
       462     2305.0  7.452E+02  3.118E+05
       463     2310.0  7.548E+02  3.156E+05
       464     2315.0  7.621E+02  3.194E+05
       465     2320.0  7.697E+02  3.232E+05
       466     2325.0  7.780E+02  3.271E+05
       467     2330.0  7.868E+02  3.310E+05
       468     2335.0  7.957E+02  3.350E+05
       469     2340.0  8.028E+02  3.390E+05
       470     2345.0  8.123E+02  3.431E+05
       471     2350.0  8.200E+02  3.472E+05
       472     2355.0  8.277E+02  3.513E+05
       473     2360.0  8.368E+02  3.555E+05
       474     2365.0  8.445E+02  3.597E+05
       475     2370.0  8.545E+02  3.640E+05
       476     2375.0  8.620E+02  3.683E+05
       477     2380.0  8.699E+02  3.727E+05
       478     2385.0  8.814E+02  3.771E+05
       479     2390.0  8.884E+02  3.815E+05
       480     2395.0  8.962E+02  3.860E+05
       481     2400.0  9.082E+02  3.906E+05
       482     2405.0  9.171E+02  3.951E+05
       483     2410.0  9.252E+02  3.998E+05
       484     2415.0  9.326E+02  4.044E+05
       485     2420.0  9.428E+02  4.091E+05
       486     2425.0  9.528E+02  4.139E+05
       487     2430.0  9.626E+02  4.187E+05
       488     2435.0  9.702E+02  4.236E+05
       489     2440.0  9.801E+02  4.285E+05
       490     2445.0  9.922E+02  4.334E+05
       491     2450.0  9.993E+02  4.384E+05
       492     2455.0  1.006E+03  4.435E+05
       493     2460.0  1.020E+03  4.486E+05
       494     2465.0  1.030E+03  4.537E+05
       495     2470.0  1.037E+03  4.589E+05
       496     2475.0  1.046E+03  4.641E+05
       497     2480.0  1.058E+03  4.694E+05
       498     2485.0  1.071E+03  4.748E+05
       499     2490.0  1.077E+03  4.802E+05
       500     2495.0  1.085E+03  4.856E+05
       501     2500.0  1.100E+03  4.911E+05
       502     2505.0  1.109E+03  4.966E+05
       503     2510.0  1.119E+03  5.022E+05
       504     2515.0  1.129E+03  5.079E+05
       505     2520.0  1.140E+03  5.136E+05
       506     2525.0  1.151E+03  5.193E+05
       507     2530.0  1.162E+03  5.251E+05
       508     2535.0  1.171E+03  5.310E+05
       509     2540.0  1.185E+03  5.369E+05
       510     2545.0  1.195E+03  5.429E+05
       511     2550.0  1.207E+03  5.489E+05
       512     2555.0  1.216E+03  5.550E+05
       513     2560.0  1.229E+03  5.611E+05
       514     2565.0  1.242E+03  5.673E+05
       515     2570.0  1.250E+03  5.736E+05
       516     2575.0  1.265E+03  5.799E+05
       517     2580.0  1.280E+03  5.863E+05
       518     2585.0  1.288E+03  5.928E+05
       519     2590.0  1.307E+03  5.993E+05
       520     2595.0  1.320E+03  6.059E+05
       521     2600.0  1.333E+03  6.126E+05
       522     2605.0  1.342E+03  6.193E+05
       523     2610.0  1.357E+03  6.261E+05
       524     2615.0  1.369E+03  6.329E+05
       525     2620.0  1.385E+03  6.398E+05
       526     2625.0  1.398E+03  6.468E+05
       527     2630.0  1.414E+03  6.539E+05
       528     2635.0  1.424E+03  6.610E+05
       529     2640.0  1.437E+03  6.682E+05
       530     2645.0  1.455E+03  6.755E+05
       531     2650.0  1.463E+03  6.828E+05
       532     2655.0  1.476E+03  6.902E+05
       533     2660.0  1.495E+03  6.976E+05
       534     2665.0  1.511E+03  7.052E+05
       535     2670.0  1.516E+03  7.128E+05
       536     2675.0  1.539E+03  7.205E+05
       537     2680.0  1.551E+03  7.282E+05
       538     2685.0  1.557E+03  7.360E+05
       539     2690.0  1.586E+03  7.439E+05
       540     2695.0  1.596E+03  7.519E+05
       541     2700.0  1.604E+03  7.599E+05
       542     2705.0  1.623E+03  7.681E+05
       543     2710.0  1.639E+03  7.763E+05
       544     2715.0  1.655E+03  7.845E+05
       545     2720.0  1.668E+03  7.929E+05
       546     2725.0  1.680E+03  8.013E+05
       547     2730.0  1.698E+03  8.098E+05
       548     2735.0  1.713E+03  8.183E+05
       549     2740.0  1.725E+03  8.269E+05
       550     2745.0  1.745E+03  8.357E+05
       551     2750.0  1.757E+03  8.445E+05
       552     2755.0  1.789E+03  8.534E+05
       553     2760.0  1.787E+03  8.623E+05
       554     2765.0  1.810E+03  8.714E+05
       555     2770.0  1.825E+03  8.805E+05
       556     2775.0  1.833E+03  8.897E+05
       557     2780.0  1.875E+03  8.991E+05
       558     2785.0  1.862E+03  9.084E+05
       559     2790.0  1.909E+03  9.179E+05
       560     2795.0  1.892E+03  9.274E+05
       561     2800.0  1.905E+03  9.369E+05
       562     2805.0  1.963E+03  9.467E+05
       563     2810.0  1.945E+03  9.564E+05
       564     2815.0  1.997E+03  9.664E+05
       565     2820.0  1.969E+03  9.763E+05
       566     2825.0  2.012E+03  9.863E+05
       567     2830.0  2.042E+03  9.965E+05
       568     2835.0  2.041E+03  1.007E+06
       569     2840.0  2.058E+03  1.017E+06
       570     2845.0  2.083E+03  1.027E+06
       571     2850.0  2.092E+03  1.038E+06
       572     2855.0  2.115E+03  1.048E+06
       573     2860.0  2.145E+03  1.059E+06
       574     2865.0  2.146E+03  1.070E+06
       575     2870.0  2.188E+03  1.081E+06
       576     2875.0  2.180E+03  1.092E+06
       577     2880.0  2.215E+03  1.103E+06
       578     2885.0  2.258E+03  1.114E+06
       579     2890.0  2.240E+03  1.125E+06
       580     2895.0  2.268E+03  1.137E+06
       581     2900.0  2.306E+03  1.148E+06
       582     2905.0  2.314E+03  1.160E+06
       583     2910.0  2.338E+03  1.171E+06
       584     2915.0  2.373E+03  1.183E+06
       585     2920.0  2.378E+03  1.195E+06
       586     2925.0  2.384E+03  1.207E+06
       587     2930.0  2.437E+03  1.219E+06
       588     2935.0  2.444E+03  1.232E+06
       589     2940.0  2.460E+03  1.244E+06
       590     2945.0  2.483E+03  1.256E+06
       591     2950.0  2.512E+03  1.269E+06
       592     2955.0  2.539E+03  1.282E+06
       593     2960.0  2.533E+03  1.294E+06
       594     2965.0  2.568E+03  1.307E+06
       595     2970.0  2.611E+03  1.320E+06
       596     2975.0  2.599E+03  1.333E+06
       597     2980.0  2.656E+03  1.346E+06
       598     2985.0  2.654E+03  1.360E+06
       599     2990.0  2.680E+03  1.373E+06
       600     2995.0  2.697E+03  1.387E+06
       601     3000.0  2.733E+03  1.400E+06
       602     3005.0  2.766E+03  1.414E+06
       603     3010.0  2.765E+03  1.428E+06
       604     3015.0  2.802E+03  1.442E+06
       605     3020.0  2.818E+03  1.456E+06
       606     3025.0  2.829E+03  1.470E+06
       607     3030.0  2.859E+03  1.484E+06
       608     3035.0  2.886E+03  1.499E+06
       609     3040.0  2.925E+03  1.513E+06
       610     3045.0  2.930E+03  1.528E+06
       611     3050.0  2.943E+03  1.543E+06
       612     3055.0  3.008E+03  1.558E+06
       613     3060.0  3.007E+03  1.573E+06
       614     3065.0  3.013E+03  1.588E+06
       615     3070.0  3.091E+03  1.603E+06
       616     3075.0  3.089E+03  1.619E+06
       617     3080.0  3.119E+03  1.634E+06
       618     3085.0  3.105E+03  1.650E+06
       619     3090.0  3.160E+03  1.666E+06
       620     3095.0  3.201E+03  1.682E+06
       621     3100.0  3.212E+03  1.698E+06
       622     3105.0  3.231E+03  1.714E+06
       623     3110.0  3.253E+03  1.730E+06
       624     3115.0  3.322E+03  1.747E+06
       625     3120.0  3.310E+03  1.763E+06
       626     3125.0  3.307E+03  1.780E+06
       627     3130.0  3.382E+03  1.797E+06
       628     3135.0  3.428E+03  1.814E+06
       629     3140.0  3.388E+03  1.831E+06
       630     3145.0  3.437E+03  1.848E+06
       631     3150.0  3.498E+03  1.866E+06
       632     3155.0  3.530E+03  1.883E+06
       633     3160.0  3.522E+03  1.901E+06
       634     3165.0  3.529E+03  1.919E+06
       635     3170.0  3.622E+03  1.937E+06
       636     3175.0  3.628E+03  1.955E+06
       637     3180.0  3.645E+03  1.973E+06
       638     3185.0  3.681E+03  1.991E+06
       639     3190.0  3.722E+03  2.010E+06
       640     3195.0  3.755E+03  2.029E+06
       641     3200.0  3.780E+03  2.048E+06
       642     3205.0  3.807E+03  2.067E+06
       643     3210.0  3.861E+03  2.086E+06
       644     3215.0  3.865E+03  2.105E+06
       645     3220.0  3.914E+03  2.125E+06
       646     3225.0  3.931E+03  2.145E+06
       647     3230.0  3.966E+03  2.164E+06
       648     3235.0  4.029E+03  2.185E+06
       649     3240.0  4.013E+03  2.205E+06
       650     3245.0  4.076E+03  2.225E+06
       651     3250.0  4.120E+03  2.246E+06
       652     3255.0  4.086E+03  2.266E+06
       653     3260.0  4.213E+03  2.287E+06
       654     3265.0  4.203E+03  2.308E+06
       655     3270.0  4.254E+03  2.329E+06
       656     3275.0  4.224E+03  2.350E+06
       657     3280.0  4.322E+03  2.372E+06
       658     3285.0  4.334E+03  2.394E+06
       659     3290.0  4.396E+03  2.416E+06
       660     3295.0  4.396E+03  2.438E+06
       661     3300.0  4.436E+03  2.460E+06
       662     3305.0  4.501E+03  2.482E+06
       663     3310.0  4.506E+03  2.505E+06
       664     3315.0  4.541E+03  2.528E+06
       665     3320.0  4.567E+03  2.550E+06
       666     3325.0  4.634E+03  2.574E+06
       667     3330.0  4.659E+03  2.597E+06
       668     3335.0  4.700E+03  2.620E+06
       669     3340.0  4.683E+03  2.644E+06
       670     3345.0  4.798E+03  2.668E+06
       671     3350.0  4.809E+03  2.692E+06
       672     3355.0  4.837E+03  2.716E+06
       673     3360.0  4.895E+03  2.741E+06
       674     3365.0  4.944E+03  2.765E+06
       675     3370.0  4.928E+03  2.790E+06
       676     3375.0  4.993E+03  2.815E+06
       677     3380.0  5.051E+03  2.840E+06
       678     3385.0  5.123E+03  2.866E+06
       679     3390.0  5.113E+03  2.891E+06
       680     3395.0  5.091E+03  2.917E+06
       681     3400.0  5.233E+03  2.943E+06
       682     3405.0  5.279E+03  2.969E+06
       683     3410.0  5.287E+03  2.996E+06
       684     3415.0  5.262E+03  3.022E+06
       685     3420.0  5.392E+03  3.049E+06
       686     3425.0  5.465E+03  3.076E+06
       687     3430.0  5.427E+03  3.103E+06
       688     3435.0  5.497E+03  3.131E+06
       689     3440.0  5.520E+03  3.159E+06
       690     3445.0  5.603E+03  3.187E+06
       691     3450.0  5.604E+03  3.215E+06
       692     3455.0  5.712E+03  3.243E+06
       693     3460.0  5.732E+03  3.272E+06
       694     3465.0  5.711E+03  3.300E+06
       695     3470.0  5.811E+03  3.329E+06
       696     3475.0  5.873E+03  3.359E+06
       697     3480.0  5.908E+03  3.388E+06
       698     3485.0  5.927E+03  3.418E+06
       699     3490.0  5.952E+03  3.448E+06
       700     3495.0  6.030E+03  3.478E+06
       701     3500.0  6.119E+03  3.508E+06
       702     3505.0  6.135E+03  3.539E+06
       703     3510.0  6.157E+03  3.570E+06
       704     3515.0  6.196E+03  3.601E+06
       705     3520.0  6.263E+03  3.632E+06
       706     3525.0  6.386E+03  3.664E+06
       707     3530.0  6.306E+03  3.696E+06
       708     3535.0  6.412E+03  3.728E+06
       709     3540.0  6.498E+03  3.760E+06
       710     3545.0  6.448E+03  3.792E+06
       711     3550.0  6.643E+03  3.826E+06
       712     3555.0  6.615E+03  3.859E+06
       713     3560.0  6.639E+03  3.892E+06
       714     3565.0  6.713E+03  3.926E+06
       715     3570.0  6.747E+03  3.959E+06
       716     3575.0  6.846E+03  3.993E+06
       717     3580.0  6.884E+03  4.028E+06
       718     3585.0  6.923E+03  4.063E+06
       719     3590.0  6.946E+03  4.097E+06
       720     3595.0  7.022E+03  4.132E+06
       721     3600.0  7.094E+03  4.168E+06
       722     3605.0  7.157E+03  4.204E+06
       723     3610.0  7.191E+03  4.240E+06
       724     3615.0  7.242E+03  4.276E+06
       725     3620.0  7.262E+03  4.312E+06
       726     3625.0  7.397E+03  4.349E+06
       727     3630.0  7.365E+03  4.386E+06
       728     3635.0  7.506E+03  4.423E+06
       729     3640.0  7.452E+03  4.461E+06
       730     3645.0  7.598E+03  4.499E+06
       731     3650.0  7.654E+03  4.537E+06
       732     3655.0  7.660E+03  4.575E+06
       733     3660.0  7.736E+03  4.614E+06
       734     3665.0  7.826E+03  4.653E+06
       735     3670.0  7.855E+03  4.692E+06
       736     3675.0  7.961E+03  4.732E+06
       737     3680.0  7.941E+03  4.772E+06
       738     3685.0  8.031E+03  4.812E+06
       739     3690.0  8.161E+03  4.853E+06
       740     3695.0  8.133E+03  4.893E+06
       741     3700.0  8.197E+03  4.934E+06
       742     3705.0  8.304E+03  4.976E+06
       743     3710.0  8.335E+03  5.018E+06
       744     3715.0  8.463E+03  5.060E+06
       745     3720.0  8.433E+03  5.102E+06
       746     3725.0  8.526E+03  5.145E+06
       747     3730.0  8.607E+03  5.188E+06
       748     3735.0  8.636E+03  5.231E+06
       749     3740.0  8.704E+03  5.275E+06
       750     3745.0  8.854E+03  5.319E+06
       751     3750.0  8.862E+03  5.363E+06
       752     3755.0  8.845E+03  5.407E+06
       753     3760.0  8.997E+03  5.452E+06
       754     3765.0  9.107E+03  5.498E+06
       755     3770.0  9.092E+03  5.543E+06
       756     3775.0  9.172E+03  5.589E+06
       757     3780.0  9.211E+03  5.635E+06
       758     3785.0  9.330E+03  5.682E+06
       759     3790.0  9.440E+03  5.729E+06
       760     3795.0  9.432E+03  5.776E+06
       761     3800.0  9.441E+03  5.823E+06
       762     3805.0  9.591E+03  5.871E+06
       763     3810.0  9.692E+03  5.920E+06
       764     3815.0  9.740E+03  5.969E+06
       765     3820.0  9.769E+03  6.017E+06
       766     3825.0  9.840E+03  6.067E+06
       767     3830.0  9.880E+03  6.116E+06
       768     3835.0  1.002E+04  6.166E+06
       769     3840.0  1.013E+04  6.217E+06
       770     3845.0  1.015E+04  6.267E+06
       771     3850.0  1.013E+04  6.318E+06
       772     3855.0  1.037E+04  6.370E+06
       773     3860.0  1.030E+04  6.421E+06
       774     3865.0  1.048E+04  6.474E+06
       775     3870.0  1.046E+04  6.526E+06
       776     3875.0  1.065E+04  6.579E+06
       777     3880.0  1.066E+04  6.633E+06
       778     3885.0  1.068E+04  6.686E+06
       779     3890.0  1.085E+04  6.740E+06
       780     3895.0  1.091E+04  6.795E+06
       781     3900.0  1.103E+04  6.850E+06
       782     3905.0  1.102E+04  6.905E+06
       783     3910.0  1.112E+04  6.961E+06
       784     3915.0  1.124E+04  7.017E+06
       785     3920.0  1.130E+04  7.073E+06
       786     3925.0  1.141E+04  7.131E+06
       787     3930.0  1.149E+04  7.188E+06
       788     3935.0  1.155E+04  7.246E+06
       789     3940.0  1.159E+04  7.304E+06
       790     3945.0  1.167E+04  7.362E+06
       791     3950.0  1.183E+04  7.421E+06
       792     3955.0  1.188E+04  7.481E+06
       793     3960.0  1.200E+04  7.541E+06
       794     3965.0  1.199E+04  7.601E+06
       795     3970.0  1.210E+04  7.661E+06
       796     3975.0  1.220E+04  7.722E+06
       797     3980.0  1.237E+04  7.784E+06
       798     3985.0  1.230E+04  7.845E+06
       799     3990.0  1.245E+04  7.908E+06
       800     3995.0  1.261E+04  7.971E+06
       801     4000.0  1.265E+04  8.034E+06
       802     4005.0  1.276E+04  8.098E+06
       803     4010.0  1.278E+04  8.162E+06
       804     4015.0  1.290E+04  8.226E+06
       805     4020.0  1.302E+04  8.291E+06
       806     4025.0  1.310E+04  8.357E+06
       807     4030.0  1.321E+04  8.423E+06
       808     4035.0  1.327E+04  8.489E+06
       809     4040.0  1.329E+04  8.556E+06
       810     4045.0  1.343E+04  8.623E+06
       811     4050.0  1.360E+04  8.691E+06
       812     4055.0  1.370E+04  8.759E+06
       813     4060.0  1.372E+04  8.828E+06
       814     4065.0  1.379E+04  8.897E+06
       815     4070.0  1.392E+04  8.966E+06
       816     4075.0  1.396E+04  9.036E+06
       817     4080.0  1.422E+04  9.107E+06
       818     4085.0  1.422E+04  9.178E+06
       819     4090.0  1.413E+04  9.249E+06
       820     4095.0  1.451E+04  9.322E+06
       821     4100.0  1.447E+04  9.394E+06
       822     4105.0  1.463E+04  9.467E+06
       823     4110.0  1.460E+04  9.540E+06
       824     4115.0  1.483E+04  9.614E+06
       825     4120.0  1.489E+04  9.689E+06
       826     4125.0  1.504E+04  9.764E+06
       827     4130.0  1.511E+04  9.839E+06
       828     4135.0  1.513E+04  9.915E+06
       829     4140.0  1.523E+04  9.991E+06
       830     4145.0  1.548E+04  1.007E+07
       831     4150.0  1.551E+04  1.015E+07
       832     4155.0  1.564E+04  1.022E+07
       833     4160.0  1.579E+04  1.030E+07
       834     4165.0  1.577E+04  1.038E+07
       835     4170.0  1.584E+04  1.046E+07
       836     4175.0  1.606E+04  1.054E+07
       837     4180.0  1.617E+04  1.062E+07
       838     4185.0  1.626E+04  1.070E+07
       839     4190.0  1.635E+04  1.079E+07
       840     4195.0  1.644E+04  1.087E+07
       841     4200.0  1.662E+04  1.095E+07
       842     4205.0  1.670E+04  1.103E+07
       843     4210.0  1.675E+04  1.112E+07
       844     4215.0  1.697E+04  1.120E+07
       845     4220.0  1.712E+04  1.129E+07
       846     4225.0  1.711E+04  1.137E+07
       847     4230.0  1.716E+04  1.146E+07
       848     4235.0  1.737E+04  1.155E+07
       849     4240.0  1.757E+04  1.163E+07
       850     4245.0  1.760E+04  1.172E+07
       851     4250.0  1.772E+04  1.181E+07
       852     4255.0  1.777E+04  1.190E+07
       853     4260.0  1.803E+04  1.199E+07
       854     4265.0  1.809E+04  1.208E+07
       855     4270.0  1.820E+04  1.217E+07
       856     4275.0  1.828E+04  1.226E+07
       857     4280.0  1.856E+04  1.236E+07
       858     4285.0  1.853E+04  1.245E+07
       859     4290.0  1.870E+04  1.254E+07
       860     4295.0  1.893E+04  1.264E+07
       861     4300.0  1.891E+04  1.273E+07
       862     4305.0  1.909E+04  1.283E+07
       863     4310.0  1.927E+04  1.292E+07
       864     4315.0  1.931E+04  1.302E+07
       865     4320.0  1.946E+04  1.312E+07
       866     4325.0  1.959E+04  1.321E+07
       867     4330.0  1.981E+04  1.331E+07
       868     4335.0  1.982E+04  1.341E+07
       869     4340.0  1.988E+04  1.351E+07
       870     4345.0  2.023E+04  1.361E+07
       871     4350.0  2.027E+04  1.371E+07
       872     4355.0  2.045E+04  1.382E+07
       873     4360.0  2.052E+04  1.392E+07
       874     4365.0  2.070E+04  1.402E+07
       875     4370.0  2.077E+04  1.413E+07
       876     4375.0  2.094E+04  1.423E+07
       877     4380.0  2.111E+04  1.434E+07
       878     4385.0  2.125E+04  1.444E+07
       879     4390.0  2.136E+04  1.455E+07
       880     4395.0  2.140E+04  1.466E+07
       881     4400.0  2.153E+04  1.477E+07
       882     4405.0  2.196E+04  1.487E+07
       883     4410.0  2.187E+04  1.498E+07
       884     4415.0  2.197E+04  1.509E+07
       885     4420.0  2.216E+04  1.520E+07
       886     4425.0  2.240E+04  1.532E+07
       887     4430.0  2.235E+04  1.543E+07
       888     4435.0  2.267E+04  1.554E+07
       889     4440.0  2.272E+04  1.566E+07
       890     4445.0  2.301E+04  1.577E+07
       891     4450.0  2.316E+04  1.589E+07
       892     4455.0  2.303E+04  1.600E+07
       893     4460.0  2.339E+04  1.612E+07
       894     4465.0  2.338E+04  1.624E+07
       895     4470.0  2.371E+04  1.635E+07
       896     4475.0  2.388E+04  1.647E+07
       897     4480.0  2.390E+04  1.659E+07
       898     4485.0  2.409E+04  1.671E+07
       899     4490.0  2.424E+04  1.683E+07
       900     4495.0  2.434E+04  1.696E+07
       901     4500.0  2.453E+04  1.708E+07
       902     4505.0  2.485E+04  1.720E+07
       903     4510.0  2.495E+04  1.733E+07
       904     4515.0  2.485E+04  1.745E+07
       905     4520.0  2.519E+04  1.758E+07
       906     4525.0  2.546E+04  1.771E+07
       907     4530.0  2.547E+04  1.783E+07
       908     4535.0  2.564E+04  1.796E+07
       909     4540.0  2.575E+04  1.809E+07
       910     4545.0  2.603E+04  1.822E+07
       911     4550.0  2.634E+04  1.835E+07
       912     4555.0  2.633E+04  1.848E+07
       913     4560.0  2.646E+04  1.862E+07
       914     4565.0  2.668E+04  1.875E+07
       915     4570.0  2.696E+04  1.888E+07
       916     4575.0  2.696E+04  1.902E+07
       917     4580.0  2.727E+04  1.915E+07
       918     4585.0  2.743E+04  1.929E+07
       919     4590.0  2.763E+04  1.943E+07
       920     4595.0  2.785E+04  1.957E+07
       921     4600.0  2.800E+04  1.971E+07
       922     4605.0  2.815E+04  1.985E+07
       923     4610.0  2.809E+04  1.999E+07
       924     4615.0  2.869E+04  2.013E+07
       925     4620.0  2.877E+04  2.028E+07
       926     4625.0  2.903E+04  2.042E+07
       927     4630.0  2.895E+04  2.057E+07
       928     4635.0  2.923E+04  2.071E+07
       929     4640.0  2.944E+04  2.086E+07
       930     4645.0  2.958E+04  2.101E+07
       931     4650.0  2.991E+04  2.116E+07
       932     4655.0  3.001E+04  2.131E+07
       933     4660.0  3.021E+04  2.146E+07
       934     4665.0  3.044E+04  2.161E+07
       935     4670.0  3.054E+04  2.176E+07
       936     4675.0  3.082E+04  2.192E+07
       937     4680.0  3.093E+04  2.207E+07
       938     4685.0  3.117E+04  2.223E+07
       939     4690.0  3.140E+04  2.239E+07
       940     4695.0  3.161E+04  2.254E+07
       941     4700.0  3.183E+04  2.270E+07
       942     4705.0  3.189E+04  2.286E+07
       943     4710.0  3.204E+04  2.302E+07
       944     4715.0  3.239E+04  2.318E+07
       945     4720.0  3.265E+04  2.335E+07
       946     4725.0  3.281E+04  2.351E+07
       947     4730.0  3.275E+04  2.368E+07
       948     4735.0  3.310E+04  2.384E+07
       949     4740.0  3.348E+04  2.401E+07
       950     4745.0  3.379E+04  2.418E+07
       951     4750.0  3.380E+04  2.435E+07
       952     4755.0  3.389E+04  2.452E+07
       953     4760.0  3.428E+04  2.469E+07
       954     4765.0  3.447E+04  2.486E+07
       955     4770.0  3.478E+04  2.503E+07
       956     4775.0  3.468E+04  2.521E+07
       957     4780.0  3.522E+04  2.538E+07
       958     4785.0  3.523E+04  2.556E+07
       959     4790.0  3.570E+04  2.574E+07
       960     4795.0  3.578E+04  2.592E+07
       961     4800.0  3.589E+04  2.610E+07
       962     4805.0  3.617E+04  2.628E+07
       963     4810.0  3.646E+04  2.646E+07
       964     4815.0  3.674E+04  2.664E+07
       965     4820.0  3.687E+04  2.683E+07
       966     4825.0  3.696E+04  2.701E+07
       967     4830.0  3.735E+04  2.720E+07
       968     4835.0  3.755E+04  2.739E+07
       969     4840.0  3.798E+04  2.758E+07
       970     4845.0  3.803E+04  2.777E+07
       971     4850.0  3.811E+04  2.796E+07
       972     4855.0  3.852E+04  2.815E+07
       973     4860.0  3.888E+04  2.834E+07
       974     4865.0  3.893E+04  2.854E+07
       975     4870.0  3.906E+04  2.873E+07
       976     4875.0  3.960E+04  2.893E+07
       977     4880.0  3.968E+04  2.913E+07
       978     4885.0  3.983E+04  2.933E+07
       979     4890.0  4.038E+04  2.953E+07
       980     4895.0  4.025E+04  2.973E+07
       981     4900.0  4.068E+04  2.994E+07
       982     4905.0  4.088E+04  3.014E+07
       983     4910.0  4.119E+04  3.035E+07
       984     4915.0  4.149E+04  3.055E+07
       985     4920.0  4.147E+04  3.076E+07
       986     4925.0  4.199E+04  3.097E+07
       987     4930.0  4.216E+04  3.118E+07
       988     4935.0  4.235E+04  3.139E+07
       989     4940.0  4.270E+04  3.161E+07
       990     4945.0  4.284E+04  3.182E+07
       991     4950.0  4.311E+04  3.204E+07
       992     4955.0  4.351E+04  3.225E+07
       993     4960.0  4.380E+04  3.247E+07
       994     4965.0  4.386E+04  3.269E+07
       995     4970.0  4.417E+04  3.291E+07
       996     4975.0  4.435E+04  3.314E+07
       997     4980.0  4.500E+04  3.336E+07
       998     4985.0  4.492E+04  3.359E+07
       999     4990.0  4.529E+04  3.381E+07
      1000     4995.0  4.558E+04  3.404E+07
      1001     5000.0  4.576E+04  3.427E+07
      1002     5005.0  4.607E+04  3.450E+07
      1003     5010.0  4.648E+04  3.473E+07
      1004     5015.0  4.662E+04  3.496E+07
      1005     5020.0  4.677E+04  3.520E+07
      1006     5025.0  4.714E+04  3.543E+07
      1007     5030.0  4.752E+04  3.567E+07
      1008     5035.0  4.770E+04  3.591E+07
      1009     5040.0  4.812E+04  3.615E+07
      1010     5045.0  4.838E+04  3.639E+07
      1011     5050.0  4.854E+04  3.664E+07
      1012     5055.0  4.883E+04  3.688E+07
      1013     5060.0  4.892E+04  3.712E+07
      1014     5065.0  4.960E+04  3.737E+07
      1015     5070.0  4.982E+04  3.762E+07
      1016     5075.0  4.996E+04  3.787E+07
      1017     5080.0  5.026E+04  3.812E+07
      1018     5085.0  5.076E+04  3.838E+07
      1019     5090.0  5.091E+04  3.863E+07
      1020     5095.0  5.097E+04  3.889E+07
      1021     5100.0  5.132E+04  3.914E+07
      1022     5105.0  5.200E+04  3.940E+07
      1023     5110.0  5.229E+04  3.966E+07
      1024     5115.0  5.228E+04  3.992E+07
      1025     5120.0  5.253E+04  4.019E+07
      1026     5125.0  5.328E+04  4.045E+07
      1027     5130.0  5.330E+04  4.072E+07
      1028     5135.0  5.331E+04  4.099E+07
      1029     5140.0  5.411E+04  4.126E+07
      1030     5145.0  5.444E+04  4.153E+07
      1031     5150.0  5.447E+04  4.180E+07
      1032     5155.0  5.493E+04  4.208E+07
      1033     5160.0  5.539E+04  4.235E+07
      1034     5165.0  5.569E+04  4.263E+07
      1035     5170.0  5.576E+04  4.291E+07
      1036     5175.0  5.612E+04  4.319E+07
      1037     5180.0  5.657E+04  4.347E+07
      1038     5185.0  5.692E+04  4.376E+07
      1039     5190.0  5.717E+04  4.404E+07
      1040     5195.0  5.769E+04  4.433E+07
      1041     5200.0  5.786E+04  4.462E+07
      1042     5205.0  5.805E+04  4.491E+07
      1043     5210.0  5.861E+04  4.521E+07
      1044     5215.0  5.876E+04  4.550E+07
      1045     5220.0  5.943E+04  4.580E+07
      1046     5225.0  5.971E+04  4.610E+07
      1047     5230.0  5.985E+04  4.639E+07
      1048     5235.0  6.038E+04  4.670E+07
      1049     5240.0  6.069E+04  4.700E+07
      1050     5245.0  6.096E+04  4.730E+07
      1051     5250.0  6.125E+04  4.761E+07
      1052     5255.0  6.205E+04  4.792E+07
      1053     5260.0  6.196E+04  4.823E+07
      1054     5265.0  6.250E+04  4.854E+07
      1055     5270.0  6.292E+04  4.886E+07
      1056     5275.0  6.301E+04  4.917E+07
      1057     5280.0  6.355E+04  4.949E+07
      1058     5285.0  6.390E+04  4.981E+07
      1059     5290.0  6.455E+04  5.013E+07
      1060     5295.0  6.475E+04  5.046E+07
      1061     5300.0  6.502E+04  5.078E+07
      1062     5305.0  6.534E+04  5.111E+07
      1063     5310.0  6.612E+04  5.144E+07
      1064     5315.0  6.610E+04  5.177E+07
      1065     5320.0  6.636E+04  5.210E+07
      1066     5325.0  6.708E+04  5.244E+07
      1067     5330.0  6.737E+04  5.277E+07
      1068     5335.0  6.779E+04  5.311E+07
      1069     5340.0  6.820E+04  5.345E+07
      1070     5345.0  6.860E+04  5.380E+07
      1071     5350.0  6.888E+04  5.414E+07
      1072     5355.0  6.952E+04  5.449E+07
      1073     5360.0  6.963E+04  5.484E+07
      1074     5365.0  7.003E+04  5.519E+07
      1075     5370.0  7.045E+04  5.554E+07
      1076     5375.0  7.123E+04  5.590E+07
      1077     5380.0  7.143E+04  5.625E+07
      1078     5385.0  7.195E+04  5.661E+07
      1079     5390.0  7.193E+04  5.697E+07
      1080     5395.0  7.253E+04  5.733E+07
      1081     5400.0  7.290E+04  5.770E+07
      1082     5405.0  7.358E+04  5.807E+07
      1083     5410.0  7.397E+04  5.844E+07
      1084     5415.0  7.426E+04  5.881E+07
      1085     5420.0  7.461E+04  5.918E+07
      1086     5425.0  7.531E+04  5.956E+07
      1087     5430.0  7.555E+04  5.994E+07
      1088     5435.0  7.601E+04  6.032E+07
      1089     5440.0  7.623E+04  6.070E+07
      1090     5445.0  7.716E+04  6.108E+07
      1091     5450.0  7.737E+04  6.147E+07
      1092     5455.0  7.780E+04  6.186E+07
      1093     5460.0  7.800E+04  6.225E+07
      1094     5465.0  7.858E+04  6.264E+07
      1095     5470.0  7.929E+04  6.304E+07
      1096     5475.0  7.965E+04  6.344E+07
      1097     5480.0  8.006E+04  6.384E+07
      1098     5485.0  8.032E+04  6.424E+07
      1099     5490.0  8.088E+04  6.464E+07
      1100     5495.0  8.149E+04  6.505E+07
      1101     5500.0  8.192E+04  6.546E+07
      1102     5505.0  8.229E+04  6.587E+07
      1103     5510.0  8.284E+04  6.628E+07
      1104     5515.0  8.321E+04  6.670E+07
      1105     5520.0  8.364E+04  6.712E+07
      1106     5525.0  8.421E+04  6.754E+07
      1107     5530.0  8.477E+04  6.796E+07
      1108     5535.0  8.493E+04  6.839E+07
      1109     5540.0  8.586E+04  6.882E+07
      1110     5545.0  8.600E+04  6.925E+07
      1111     5550.0  8.643E+04  6.968E+07
      1112     5555.0  8.725E+04  7.012E+07
      1113     5560.0  8.764E+04  7.055E+07
      1114     5565.0  8.787E+04  7.099E+07
      1115     5570.0  8.834E+04  7.144E+07
      1116     5575.0  8.896E+04  7.188E+07
      1117     5580.0  8.979E+04  7.233E+07
      1118     5585.0  9.003E+04  7.278E+07
      1119     5590.0  9.047E+04  7.323E+07
      1120     5595.0  9.104E+04  7.369E+07
      1121     5600.0  9.148E+04  7.414E+07
      1122     5605.0  9.178E+04  7.460E+07
      1123     5610.0  9.252E+04  7.507E+07
      1124     5615.0  9.307E+04  7.553E+07
      1125     5620.0  9.374E+04  7.600E+07
      1126     5625.0  9.405E+04  7.647E+07
      1127     5630.0  9.426E+04  7.694E+07
      1128     5635.0  9.505E+04  7.742E+07
      1129     5640.0  9.574E+04  7.790E+07
      1130     5645.0  9.589E+04  7.838E+07
      1131     5650.0  9.695E+04  7.886E+07
      1132     5655.0  9.724E+04  7.935E+07
      1133     5660.0  9.762E+04  7.983E+07
      1134     5665.0  9.813E+04  8.032E+07
      1135     5670.0  9.862E+04  8.082E+07
      1136     5675.0  9.954E+04  8.132E+07
      1137     5680.0  9.993E+04  8.182E+07
      1138     5685.0  1.002E+05  8.232E+07
      1139     5690.0  1.012E+05  8.282E+07
      1140     5695.0  1.015E+05  8.333E+07
      1141     5700.0  1.019E+05  8.384E+07
      1142     5705.0  1.028E+05  8.435E+07
      1143     5710.0  1.033E+05  8.487E+07
      1144     5715.0  1.038E+05  8.539E+07
      1145     5720.0  1.045E+05  8.591E+07
      1146     5725.0  1.049E+05  8.644E+07
      1147     5730.0  1.054E+05  8.696E+07
      1148     5735.0  1.063E+05  8.749E+07
      1149     5740.0  1.068E+05  8.803E+07
      1150     5745.0  1.070E+05  8.856E+07
      1151     5750.0  1.080E+05  8.910E+07
      1152     5755.0  1.083E+05  8.964E+07
      1153     5760.0  1.092E+05  9.019E+07
      1154     5765.0  1.101E+05  9.074E+07
      1155     5770.0  1.102E+05  9.129E+07
      1156     5775.0  1.103E+05  9.184E+07
      1157     5780.0  1.115E+05  9.240E+07
      1158     5785.0  1.123E+05  9.296E+07
      1159     5790.0  1.129E+05  9.353E+07
      1160     5795.0  1.132E+05  9.409E+07
      1161     5800.0  1.139E+05  9.466E+07
      1162     5805.0  1.145E+05  9.524E+07
      1163     5810.0  1.155E+05  9.581E+07
      1164     5815.0  1.157E+05  9.639E+07
      1165     5820.0  1.164E+05  9.697E+07
      1166     5825.0  1.170E+05  9.756E+07
      1167     5830.0  1.176E+05  9.815E+07
      1168     5835.0  1.183E+05  9.874E+07
      1169     5840.0  1.194E+05  9.933E+07
      1170     5845.0  1.198E+05  9.993E+07
      1171     5850.0  1.200E+05  1.005E+08
      1172     5855.0  1.209E+05  1.011E+08
      1173     5860.0  1.216E+05  1.017E+08
      1174     5865.0  1.220E+05  1.024E+08
      1175     5870.0  1.229E+05  1.030E+08
      1176     5875.0  1.236E+05  1.036E+08
      1177     5880.0  1.243E+05  1.042E+08
      1178     5885.0  1.247E+05  1.048E+08
      1179     5890.0  1.258E+05  1.055E+08
      1180     5895.0  1.261E+05  1.061E+08
      1181     5900.0  1.264E+05  1.067E+08
      1182     5905.0  1.276E+05  1.074E+08
      1183     5910.0  1.282E+05  1.080E+08
      1184     5915.0  1.291E+05  1.086E+08
      1185     5920.0  1.298E+05  1.093E+08
      1186     5925.0  1.301E+05  1.099E+08
      1187     5930.0  1.308E+05  1.106E+08
      1188     5935.0  1.318E+05  1.113E+08
      1189     5940.0  1.322E+05  1.119E+08
      1190     5945.0  1.332E+05  1.126E+08
      1191     5950.0  1.338E+05  1.133E+08
      1192     5955.0  1.343E+05  1.139E+08
      1193     5960.0  1.349E+05  1.146E+08
      1194     5965.0  1.361E+05  1.153E+08
      1195     5970.0  1.369E+05  1.160E+08
      1196     5975.0  1.372E+05  1.167E+08
      1197     5980.0  1.378E+05  1.173E+08
      1198     5985.0  1.386E+05  1.180E+08
      1199     5990.0  1.397E+05  1.187E+08
      1200     5995.0  1.407E+05  1.194E+08
      1201     6000.0  1.406E+05  1.201E+08
      1202     6005.0  1.418E+05  1.208E+08
      1203     6010.0  1.426E+05  1.216E+08
      1204     6015.0  1.430E+05  1.223E+08
      1205     6020.0  1.439E+05  1.230E+08
      1206     6025.0  1.447E+05  1.237E+08
      1207     6030.0  1.458E+05  1.244E+08
      1208     6035.0  1.470E+05  1.252E+08
      1209     6040.0  1.468E+05  1.259E+08
      1210     6045.0  1.474E+05  1.267E+08
      1211     6050.0  1.485E+05  1.274E+08
      1212     6055.0  1.497E+05  1.281E+08
      1213     6060.0  1.507E+05  1.289E+08
      1214     6065.0  1.506E+05  1.297E+08
      1215     6070.0  1.519E+05  1.304E+08
      1216     6075.0  1.526E+05  1.312E+08
      1217     6080.0  1.529E+05  1.319E+08
      1218     6085.0  1.546E+05  1.327E+08
      1219     6090.0  1.551E+05  1.335E+08
      1220     6095.0  1.559E+05  1.343E+08
      1221     6100.0  1.568E+05  1.351E+08
      1222     6105.0  1.576E+05  1.358E+08
      1223     6110.0  1.580E+05  1.366E+08
      1224     6115.0  1.593E+05  1.374E+08
      1225     6120.0  1.600E+05  1.382E+08
      1226     6125.0  1.610E+05  1.390E+08
      1227     6130.0  1.620E+05  1.398E+08
      1228     6135.0  1.624E+05  1.407E+08
      1229     6140.0  1.632E+05  1.415E+08
      1230     6145.0  1.641E+05  1.423E+08
      1231     6150.0  1.656E+05  1.431E+08
      1232     6155.0  1.662E+05  1.439E+08
      1233     6160.0  1.668E+05  1.448E+08
      1234     6165.0  1.677E+05  1.456E+08
      1235     6170.0  1.685E+05  1.465E+08
      1236     6175.0  1.696E+05  1.473E+08
      1237     6180.0  1.707E+05  1.482E+08
      1238     6185.0  1.713E+05  1.490E+08
      1239     6190.0  1.724E+05  1.499E+08
      1240     6195.0  1.733E+05  1.508E+08
      1241     6200.0  1.737E+05  1.516E+08
      1242     6205.0  1.749E+05  1.525E+08
      1243     6210.0  1.760E+05  1.534E+08
      1244     6215.0  1.767E+05  1.543E+08
      1245     6220.0  1.777E+05  1.551E+08
      1246     6225.0  1.784E+05  1.560E+08
      1247     6230.0  1.797E+05  1.569E+08
      1248     6235.0  1.802E+05  1.578E+08
      1249     6240.0  1.815E+05  1.587E+08
      1250     6245.0  1.824E+05  1.597E+08
      1251     6250.0  1.831E+05  1.606E+08
      1252     6255.0  1.843E+05  1.615E+08
      1253     6260.0  1.851E+05  1.624E+08
      1254     6265.0  1.860E+05  1.633E+08
      1255     6270.0  1.871E+05  1.643E+08
      1256     6275.0  1.878E+05  1.652E+08
      1257     6280.0  1.891E+05  1.662E+08
      1258     6285.0  1.897E+05  1.671E+08
      1259     6290.0  1.908E+05  1.681E+08
      1260     6295.0  1.918E+05  1.690E+08
      1261     6300.0  1.932E+05  1.700E+08
      1262     6305.0  1.939E+05  1.710E+08
      1263     6310.0  1.946E+05  1.719E+08
      1264     6315.0  1.956E+05  1.729E+08
      1265     6320.0  1.967E+05  1.739E+08
      1266     6325.0  1.974E+05  1.749E+08
      1267     6330.0  1.990E+05  1.759E+08
      1268     6335.0  2.002E+05  1.769E+08
      1269     6340.0  2.009E+05  1.779E+08
      1270     6345.0  2.018E+05  1.789E+08
      1271     6350.0  2.025E+05  1.799E+08
      1272     6355.0  2.038E+05  1.809E+08
      1273     6360.0  2.053E+05  1.820E+08
      1274     6365.0  2.058E+05  1.830E+08
      1275     6370.0  2.071E+05  1.840E+08
      1276     6375.0  2.081E+05  1.851E+08
      1277     6380.0  2.088E+05  1.861E+08
      1278     6385.0  2.102E+05  1.872E+08
      1279     6390.0  2.114E+05  1.882E+08
      1280     6395.0  2.122E+05  1.893E+08
      1281     6400.0  2.136E+05  1.903E+08
      1282     6405.0  2.139E+05  1.914E+08
      1283     6410.0  2.160E+05  1.925E+08
      1284     6415.0  2.167E+05  1.936E+08
      1285     6420.0  2.178E+05  1.947E+08
      1286     6425.0  2.186E+05  1.958E+08
      1287     6430.0  2.197E+05  1.969E+08
      1288     6435.0  2.209E+05  1.980E+08
      1289     6440.0  2.224E+05  1.991E+08
      1290     6445.0  2.235E+05  2.002E+08
      1291     6450.0  2.246E+05  2.013E+08
      1292     6455.0  2.253E+05  2.024E+08
      1293     6460.0  2.266E+05  2.036E+08
      1294     6465.0  2.276E+05  2.047E+08
      1295     6470.0  2.291E+05  2.059E+08
      1296     6475.0  2.298E+05  2.070E+08
      1297     6480.0  2.314E+05  2.082E+08
      1298     6485.0  2.326E+05  2.093E+08
      1299     6490.0  2.336E+05  2.105E+08
      1300     6495.0  2.347E+05  2.117E+08
      1301     6500.0  2.361E+05  2.128E+08
      1302     6505.0  2.369E+05  2.140E+08
      1303     6510.0  2.385E+05  2.152E+08
      1304     6515.0  2.393E+05  2.164E+08
      1305     6520.0  2.410E+05  2.176E+08
      1306     6525.0  2.421E+05  2.188E+08
      1307     6530.0  2.430E+05  2.201E+08
      1308     6535.0  2.442E+05  2.213E+08
      1309     6540.0  2.465E+05  2.225E+08
      1310     6545.0  2.468E+05  2.237E+08
      1311     6550.0  2.477E+05  2.250E+08
      1312     6555.0  2.496E+05  2.262E+08
      1313     6560.0  2.508E+05  2.275E+08
      1314     6565.0  2.519E+05  2.287E+08
      1315     6570.0  2.533E+05  2.300E+08
      1316     6575.0  2.547E+05  2.313E+08
      1317     6580.0  2.555E+05  2.326E+08
      1318     6585.0  2.567E+05  2.338E+08
      1319     6590.0  2.585E+05  2.351E+08
      1320     6595.0  2.599E+05  2.364E+08
      1321     6600.0  2.612E+05  2.377E+08
      1322     6605.0  2.619E+05  2.390E+08
      1323     6610.0  2.634E+05  2.404E+08
      1324     6615.0  2.651E+05  2.417E+08
      1325     6620.0  2.656E+05  2.430E+08
      1326     6625.0  2.675E+05  2.444E+08
      1327     6630.0  2.691E+05  2.457E+08
      1328     6635.0  2.700E+05  2.470E+08
      1329     6640.0  2.718E+05  2.484E+08
      1330     6645.0  2.727E+05  2.498E+08
      1331     6650.0  2.743E+05  2.511E+08
      1332     6655.0  2.755E+05  2.525E+08
      1333     6660.0  2.765E+05  2.539E+08
      1334     6665.0  2.780E+05  2.553E+08
      1335     6670.0  2.797E+05  2.567E+08
      1336     6675.0  2.816E+05  2.581E+08
      1337     6680.0  2.822E+05  2.595E+08
      1338     6685.0  2.838E+05  2.609E+08
      1339     6690.0  2.852E+05  2.624E+08
      1340     6695.0  2.863E+05  2.638E+08
      1341     6700.0  2.881E+05  2.652E+08
      1342     6705.0  2.891E+05  2.667E+08
      1343     6710.0  2.907E+05  2.681E+08
      1344     6715.0  2.930E+05  2.696E+08
      1345     6720.0  2.939E+05  2.711E+08
      1346     6725.0  2.951E+05  2.725E+08
      1347     6730.0  2.962E+05  2.740E+08
      1348     6735.0  2.979E+05  2.755E+08
      1349     6740.0  2.993E+05  2.770E+08
      1350     6745.0  3.012E+05  2.785E+08
      1351     6750.0  3.024E+05  2.800E+08
      1352     6755.0  3.045E+05  2.815E+08
      1353     6760.0  3.052E+05  2.831E+08
      1354     6765.0  3.063E+05  2.846E+08
      1355     6770.0  3.084E+05  2.861E+08
      1356     6775.0  3.097E+05  2.877E+08
      1357     6780.0  3.116E+05  2.893E+08
      1358     6785.0  3.129E+05  2.908E+08
      1359     6790.0  3.142E+05  2.924E+08
      1360     6795.0  3.165E+05  2.940E+08
      1361     6800.0  3.179E+05  2.956E+08
      1362     6805.0  3.188E+05  2.972E+08
      1363     6810.0  3.196E+05  2.987E+08
      1364     6815.0  3.221E+05  3.004E+08
      1365     6820.0  3.239E+05  3.020E+08
      1366     6825.0  3.251E+05  3.036E+08
      1367     6830.0  3.269E+05  3.052E+08
      1368     6835.0  3.288E+05  3.069E+08
      1369     6840.0  3.300E+05  3.085E+08
      1370     6845.0  3.316E+05  3.102E+08
      1371     6850.0  3.331E+05  3.119E+08
      1372     6855.0  3.351E+05  3.135E+08
      1373     6860.0  3.367E+05  3.152E+08
      1374     6865.0  3.379E+05  3.169E+08
      1375     6870.0  3.398E+05  3.186E+08
      1376     6875.0  3.414E+05  3.203E+08
      1377     6880.0  3.431E+05  3.220E+08
      1378     6885.0  3.448E+05  3.238E+08
      1379     6890.0  3.463E+05  3.255E+08
      1380     6895.0  3.485E+05  3.272E+08
      1381     6900.0  3.505E+05  3.290E+08
      1382     6905.0  3.513E+05  3.307E+08
      1383     6910.0  3.524E+05  3.325E+08
      1384     6915.0  3.553E+05  3.343E+08
      1385     6920.0  3.570E+05  3.361E+08
      1386     6925.0  3.580E+05  3.378E+08
      1387     6930.0  3.601E+05  3.396E+08
      1388     6935.0  3.620E+05  3.415E+08
      1389     6940.0  3.639E+05  3.433E+08
      1390     6945.0  3.655E+05  3.451E+08
      1391     6950.0  3.670E+05  3.469E+08
      1392     6955.0  3.691E+05  3.488E+08
      1393     6960.0  3.702E+05  3.506E+08
      1394     6965.0  3.726E+05  3.525E+08
      1395     6970.0  3.741E+05  3.544E+08
      1396     6975.0  3.756E+05  3.563E+08
      1397     6980.0  3.788E+05  3.581E+08
      1398     6985.0  3.798E+05  3.600E+08
      1399     6990.0  3.814E+05  3.620E+08
      1400     6995.0  3.830E+05  3.639E+08
      1401     7000.0  3.848E+05  3.658E+08
      1402     7005.0  3.864E+05  3.677E+08
      1403     7010.0  3.889E+05  3.697E+08
      1404     7015.0  3.915E+05  3.716E+08
      1405     7020.0  3.923E+05  3.736E+08
      1406     7025.0  3.940E+05  3.756E+08
      1407     7030.0  3.959E+05  3.775E+08
      1408     7035.0  3.979E+05  3.795E+08
      1409     7040.0  4.002E+05  3.815E+08
      1410     7045.0  4.013E+05  3.835E+08
      1411     7050.0  4.041E+05  3.856E+08
      1412     7055.0  4.057E+05  3.876E+08
      1413     7060.0  4.074E+05  3.896E+08
      1414     7065.0  4.092E+05  3.917E+08
      1415     7070.0  4.114E+05  3.937E+08
      1416     7075.0  4.129E+05  3.958E+08
      1417     7080.0  4.154E+05  3.979E+08
      1418     7085.0  4.176E+05  4.000E+08
      1419     7090.0  4.190E+05  4.020E+08
      1420     7095.0  4.213E+05  4.042E+08
      1421     7100.0  4.235E+05  4.063E+08
      1422     7105.0  4.251E+05  4.084E+08
      1423     7110.0  4.272E+05  4.105E+08
      1424     7115.0  4.297E+05  4.127E+08
      1425     7120.0  4.312E+05  4.148E+08
      1426     7125.0  4.337E+05  4.170E+08
      1427     7130.0  4.357E+05  4.192E+08
      1428     7135.0  4.374E+05  4.214E+08
      1429     7140.0  4.391E+05  4.236E+08
      1430     7145.0  4.413E+05  4.258E+08
      1431     7150.0  4.445E+05  4.280E+08
      1432     7155.0  4.451E+05  4.302E+08
      1433     7160.0  4.477E+05  4.325E+08
      1434     7165.0  4.505E+05  4.347E+08
      1435     7170.0  4.522E+05  4.370E+08
      1436     7175.0  4.539E+05  4.392E+08
      1437     7180.0  4.566E+05  4.415E+08
      1438     7185.0  4.583E+05  4.438E+08
      1439     7190.0  4.604E+05  4.461E+08
      1440     7195.0  4.637E+05  4.484E+08
      1441     7200.0  4.653E+05  4.508E+08
      1442     7205.0  4.668E+05  4.531E+08
      1443     7210.0  4.691E+05  4.554E+08
      1444     7215.0  4.707E+05  4.578E+08
      1445     7220.0  4.740E+05  4.602E+08
      1446     7225.0  4.765E+05  4.625E+08
      1447     7230.0  4.786E+05  4.649E+08
      1448     7235.0  4.799E+05  4.673E+08
      1449     7240.0  4.824E+05  4.698E+08
      1450     7245.0  4.849E+05  4.722E+08
      1451     7250.0  4.870E+05  4.746E+08
      1452     7255.0  4.892E+05  4.771E+08
      1453     7260.0  4.915E+05  4.795E+08
      1454     7265.0  4.938E+05  4.820E+08
      1455     7270.0  4.968E+05  4.845E+08
      1456     7275.0  4.983E+05  4.870E+08
      1457     7280.0  5.012E+05  4.895E+08
      1458     7285.0  5.031E+05  4.920E+08
      1459     7290.0  5.053E+05  4.945E+08
      1460     7295.0  5.081E+05  4.970E+08
      1461     7300.0  5.102E+05  4.996E+08
      1462     7305.0  5.131E+05  5.022E+08
      1463     7310.0  5.145E+05  5.047E+08
      1464     7315.0  5.171E+05  5.073E+08
      1465     7320.0  5.202E+05  5.099E+08
      1466     7325.0  5.227E+05  5.125E+08
      1467     7330.0  5.249E+05  5.152E+08
      1468     7335.0  5.267E+05  5.178E+08
      1469     7340.0  5.289E+05  5.204E+08
      1470     7345.0  5.326E+05  5.231E+08
      1471     7350.0  5.350E+05  5.258E+08
      1472     7355.0  5.368E+05  5.285E+08
      1473     7360.0  5.399E+05  5.312E+08
      1474     7365.0  5.417E+05  5.339E+08
      1475     7370.0  5.447E+05  5.366E+08
      1476     7375.0  5.474E+05  5.393E+08
      1477     7380.0  5.490E+05  5.421E+08
      1478     7385.0  5.519E+05  5.448E+08
      1479     7390.0  5.549E+05  5.476E+08
      1480     7395.0  5.580E+05  5.504E+08
      1481     7400.0  5.604E+05  5.532E+08
      1482     7405.0  5.623E+05  5.560E+08
      1483     7410.0  5.650E+05  5.588E+08
      1484     7415.0  5.671E+05  5.617E+08
      1485     7420.0  5.708E+05  5.645E+08
      1486     7425.0  5.730E+05  5.674E+08
      1487     7430.0  5.752E+05  5.703E+08
      1488     7435.0  5.788E+05  5.732E+08
      1489     7440.0  5.816E+05  5.761E+08
      1490     7445.0  5.836E+05  5.790E+08
      1491     7450.0  5.857E+05  5.819E+08
      1492     7455.0  5.891E+05  5.849E+08
      1493     7460.0  5.920E+05  5.878E+08
      1494     7465.0  5.937E+05  5.908E+08
      1495     7470.0  5.977E+05  5.938E+08
      1496     7475.0  6.000E+05  5.968E+08
      1497     7480.0  6.030E+05  5.998E+08
      1498     7485.0  6.054E+05  6.028E+08
      1499     7490.0  6.080E+05  6.059E+08
      1500     7495.0  6.110E+05  6.089E+08
      1501     7500.0  6.140E+05  6.120E+08
      1502     7505.0  6.167E+05  6.151E+08
      1503     7510.0  6.195E+05  6.182E+08
      1504     7515.0  6.225E+05  6.213E+08
      1505     7520.0  6.247E+05  6.244E+08
      1506     7525.0  6.279E+05  6.275E+08
      1507     7530.0  6.316E+05  6.307E+08
      1508     7535.0  6.340E+05  6.339E+08
      1509     7540.0  6.369E+05  6.371E+08
      1510     7545.0  6.397E+05  6.403E+08
      1511     7550.0  6.424E+05  6.435E+08
      1512     7555.0  6.451E+05  6.467E+08
      1513     7560.0  6.481E+05  6.499E+08
      1514     7565.0  6.513E+05  6.532E+08
      1515     7570.0  6.541E+05  6.565E+08
      1516     7575.0  6.570E+05  6.597E+08
      1517     7580.0  6.614E+05  6.631E+08
      1518     7585.0  6.635E+05  6.664E+08
      1519     7590.0  6.667E+05  6.697E+08
      1520     7595.0  6.686E+05  6.730E+08
      1521     7600.0  6.717E+05  6.764E+08
      1522     7605.0  6.756E+05  6.798E+08
      1523     7610.0  6.777E+05  6.832E+08
      1524     7615.0  6.808E+05  6.866E+08
      1525     7620.0  6.851E+05  6.900E+08
      1526     7625.0  6.877E+05  6.934E+08
      1527     7630.0  6.910E+05  6.969E+08
      1528     7635.0  6.933E+05  7.004E+08
      1529     7640.0  6.972E+05  7.038E+08
      1530     7645.0  7.001E+05  7.073E+08
      1531     7650.0  7.025E+05  7.109E+08
      1532     7655.0  7.058E+05  7.144E+08
      1533     7660.0  7.099E+05  7.179E+08
      1534     7665.0  7.132E+05  7.215E+08
      1535     7670.0  7.156E+05  7.251E+08
      1536     7675.0  7.187E+05  7.287E+08
      1537     7680.0  7.218E+05  7.323E+08
      1538     7685.0  7.252E+05  7.359E+08
      1539     7690.0  7.289E+05  7.396E+08
      1540     7695.0  7.319E+05  7.432E+08
      1541     7700.0  7.366E+05  7.469E+08
      1542     7705.0  7.384E+05  7.506E+08
      1543     7710.0  7.415E+05  7.543E+08
      1544     7715.0  7.446E+05  7.580E+08
      1545     7720.0  7.483E+05  7.618E+08
      1546     7725.0  7.519E+05  7.655E+08
      1547     7730.0  7.548E+05  7.693E+08
      1548     7735.0  7.583E+05  7.731E+08
      1549     7740.0  7.627E+05  7.769E+08
      1550     7745.0  7.649E+05  7.807E+08
      1551     7750.0  7.688E+05  7.846E+08
      1552     7755.0  7.715E+05  7.884E+08
      1553     7760.0  7.758E+05  7.923E+08
      1554     7765.0  7.782E+05  7.962E+08
      1555     7770.0  7.820E+05  8.001E+08
      1556     7775.0  7.863E+05  8.040E+08
      1557     7780.0  7.893E+05  8.080E+08
      1558     7785.0  7.924E+05  8.119E+08
      1559     7790.0  7.957E+05  8.159E+08
      1560     7795.0  7.998E+05  8.199E+08
      1561     7800.0  8.037E+05  8.239E+08
      1562     7805.0  8.065E+05  8.280E+08
      1563     7810.0  8.097E+05  8.320E+08
      1564     7815.0  8.141E+05  8.361E+08
      1565     7820.0  8.178E+05  8.402E+08
      1566     7825.0  8.211E+05  8.443E+08
      1567     7830.0  8.249E+05  8.484E+08
      1568     7835.0  8.284E+05  8.526E+08
      1569     7840.0  8.313E+05  8.567E+08
      1570     7845.0  8.370E+05  8.609E+08
      1571     7850.0  8.401E+05  8.651E+08
      1572     7855.0  8.430E+05  8.693E+08
      1573     7860.0  8.467E+05  8.735E+08
      1574     7865.0  8.509E+05  8.778E+08
      1575     7870.0  8.543E+05  8.821E+08
      1576     7875.0  8.591E+05  8.864E+08
      1577     7880.0  8.626E+05  8.907E+08
      1578     7885.0  8.658E+05  8.950E+08
      1579     7890.0  8.704E+05  8.994E+08
      1580     7895.0  8.747E+05  9.037E+08
      1581     7900.0  8.773E+05  9.081E+08
      1582     7905.0  8.810E+05  9.125E+08
      1583     7910.0  8.861E+05  9.170E+08
      1584     7915.0  8.899E+05  9.214E+08
      1585     7920.0  8.936E+05  9.259E+08
      1586     7925.0  8.975E+05  9.304E+08
      1587     7930.0  9.012E+05  9.349E+08
      1588     7935.0  9.049E+05  9.394E+08
      1589     7940.0  9.095E+05  9.439E+08
      1590     7945.0  9.151E+05  9.485E+08
      1591     7950.0  9.173E+05  9.531E+08
      1592     7955.0  9.210E+05  9.577E+08
      1593     7960.0  9.253E+05  9.623E+08
      1594     7965.0  9.302E+05  9.670E+08
      1595     7970.0  9.337E+05  9.717E+08
      1596     7975.0  9.382E+05  9.763E+08
      1597     7980.0  9.416E+05  9.810E+08
      1598     7985.0  9.468E+05  9.858E+08
      1599     7990.0  9.510E+05  9.905E+08
      1600     7995.0  9.542E+05  9.953E+08
      1601     8000.0  9.584E+05  1.000E+09
      1602     8005.0  9.630E+05  1.005E+09
      1603     8010.0  9.675E+05  1.010E+09
      1604     8015.0  9.720E+05  1.015E+09
      1605     8020.0  9.742E+05  1.019E+09
      1606     8025.0  9.802E+05  1.024E+09
      1607     8030.0  9.853E+05  1.029E+09
      1608     8035.0  9.873E+05  1.034E+09
      1609     8040.0  9.928E+05  1.039E+09
      1610     8045.0  9.975E+05  1.044E+09
      1611     8050.0  1.002E+06  1.049E+09
      1612     8055.0  1.005E+06  1.054E+09
      1613     8060.0  1.010E+06  1.059E+09
      1614     8065.0  1.014E+06  1.064E+09
      1615     8070.0  1.019E+06  1.069E+09
      1616     8075.0  1.024E+06  1.075E+09
      1617     8080.0  1.027E+06  1.080E+09
      1618     8085.0  1.033E+06  1.085E+09
      1619     8090.0  1.037E+06  1.090E+09
      1620     8095.0  1.041E+06  1.095E+09
      1621     8100.0  1.046E+06  1.100E+09
      1622     8105.0  1.050E+06  1.106E+09
      1623     8110.0  1.055E+06  1.111E+09
      1624     8115.0  1.060E+06  1.116E+09
      1625     8120.0  1.064E+06  1.122E+09
      1626     8125.0  1.070E+06  1.127E+09
      1627     8130.0  1.074E+06  1.132E+09
      1628     8135.0  1.077E+06  1.138E+09
      1629     8140.0  1.082E+06  1.143E+09
      1630     8145.0  1.087E+06  1.149E+09
      1631     8150.0  1.093E+06  1.154E+09
      1632     8155.0  1.097E+06  1.160E+09
      1633     8160.0  1.102E+06  1.165E+09
      1634     8165.0  1.108E+06  1.171E+09
      1635     8170.0  1.111E+06  1.176E+09
      1636     8175.0  1.117E+06  1.182E+09
      1637     8180.0  1.122E+06  1.187E+09
      1638     8185.0  1.125E+06  1.193E+09
      1639     8190.0  1.131E+06  1.199E+09
      1640     8195.0  1.136E+06  1.204E+09
      1641     8200.0  1.141E+06  1.210E+09
      1642     8205.0  1.146E+06  1.216E+09
      1643     8210.0  1.151E+06  1.221E+09
      1644     8215.0  1.156E+06  1.227E+09
      1645     8220.0  1.161E+06  1.233E+09
      1646     8225.0  1.166E+06  1.239E+09
      1647     8230.0  1.171E+06  1.245E+09
      1648     8235.0  1.175E+06  1.251E+09
      1649     8240.0  1.181E+06  1.257E+09
      1650     8245.0  1.186E+06  1.262E+09
      1651     8250.0  1.193E+06  1.268E+09
      1652     8255.0  1.196E+06  1.274E+09
      1653     8260.0  1.202E+06  1.280E+09
      1654     8265.0  1.207E+06  1.286E+09
      1655     8270.0  1.213E+06  1.293E+09
      1656     8275.0  1.218E+06  1.299E+09
      1657     8280.0  1.223E+06  1.305E+09
      1658     8285.0  1.228E+06  1.311E+09
      1659     8290.0  1.232E+06  1.317E+09
      1660     8295.0  1.238E+06  1.323E+09
      1661     8300.0  1.245E+06  1.329E+09
      1662     8305.0  1.250E+06  1.336E+09
      1663     8310.0  1.255E+06  1.342E+09
      1664     8315.0  1.261E+06  1.348E+09
      1665     8320.0  1.265E+06  1.355E+09
      1666     8325.0  1.271E+06  1.361E+09
      1667     8330.0  1.277E+06  1.367E+09
      1668     8335.0  1.282E+06  1.374E+09
      1669     8340.0  1.287E+06  1.380E+09
      1670     8345.0  1.295E+06  1.387E+09
      1671     8350.0  1.297E+06  1.393E+09
      1672     8355.0  1.304E+06  1.400E+09
      1673     8360.0  1.310E+06  1.406E+09
      1674     8365.0  1.315E+06  1.413E+09
      1675     8370.0  1.321E+06  1.419E+09
      1676     8375.0  1.325E+06  1.426E+09
      1677     8380.0  1.331E+06  1.433E+09
      1678     8385.0  1.336E+06  1.439E+09
      1679     8390.0  1.343E+06  1.446E+09
      1680     8395.0  1.348E+06  1.453E+09
      1681     8400.0  1.353E+06  1.460E+09
      1682     8405.0  1.357E+06  1.466E+09
      1683     8410.0  1.363E+06  1.473E+09
      1684     8415.0  1.371E+06  1.480E+09
      1685     8420.0  1.376E+06  1.487E+09
      1686     8425.0  1.381E+06  1.494E+09
      1687     8430.0  1.387E+06  1.501E+09
      1688     8435.0  1.393E+06  1.508E+09
      1689     8440.0  1.398E+06  1.515E+09
      1690     8445.0  1.403E+06  1.522E+09
      1691     8450.0  1.408E+06  1.529E+09
      1692     8455.0  1.416E+06  1.536E+09
      1693     8460.0  1.421E+06  1.543E+09
      1694     8465.0  1.427E+06  1.550E+09
      1695     8470.0  1.433E+06  1.557E+09
      1696     8475.0  1.437E+06  1.564E+09
      1697     8480.0  1.446E+06  1.572E+09
      1698     8485.0  1.451E+06  1.579E+09
      1699     8490.0  1.458E+06  1.586E+09
      1700     8495.0  1.465E+06  1.594E+09
      1701     8500.0  1.469E+06  1.601E+09
      1702     8505.0  1.476E+06  1.608E+09
      1703     8510.0  1.485E+06  1.616E+09
      1704     8515.0  1.490E+06  1.623E+09
      1705     8520.0  1.494E+06  1.631E+09
      1706     8525.0  1.503E+06  1.638E+09
      1707     8530.0  1.507E+06  1.646E+09
      1708     8535.0  1.515E+06  1.653E+09
      1709     8540.0  1.520E+06  1.661E+09
      1710     8545.0  1.526E+06  1.668E+09
      1711     8550.0  1.536E+06  1.676E+09
      1712     8555.0  1.539E+06  1.684E+09
      1713     8560.0  1.545E+06  1.692E+09
      1714     8565.0  1.550E+06  1.699E+09
      1715     8570.0  1.559E+06  1.707E+09
      1716     8575.0  1.567E+06  1.715E+09
      1717     8580.0  1.574E+06  1.723E+09
      1718     8585.0  1.577E+06  1.731E+09
      1719     8590.0  1.585E+06  1.739E+09
      1720     8595.0  1.591E+06  1.747E+09
      1721     8600.0  1.597E+06  1.755E+09
      1722     8605.0  1.605E+06  1.763E+09
      1723     8610.0  1.609E+06  1.771E+09
      1724     8615.0  1.617E+06  1.779E+09
      1725     8620.0  1.625E+06  1.787E+09
      1726     8625.0  1.630E+06  1.795E+09
      1727     8630.0  1.638E+06  1.803E+09
      1728     8635.0  1.645E+06  1.811E+09
      1729     8640.0  1.648E+06  1.820E+09
      1730     8645.0  1.660E+06  1.828E+09
      1731     8650.0  1.665E+06  1.836E+09
      1732     8655.0  1.674E+06  1.845E+09
      1733     8660.0  1.678E+06  1.853E+09
      1734     8665.0  1.686E+06  1.861E+09
      1735     8670.0  1.695E+06  1.870E+09
      1736     8675.0  1.700E+06  1.878E+09
      1737     8680.0  1.713E+06  1.887E+09
      1738     8685.0  1.712E+06  1.896E+09
      1739     8690.0  1.722E+06  1.904E+09
      1740     8695.0  1.728E+06  1.913E+09
      1741     8700.0  1.736E+06  1.921E+09
      1742     8705.0  1.747E+06  1.930E+09
      1743     8710.0  1.745E+06  1.939E+09
      1744     8715.0  1.762E+06  1.948E+09
      1745     8720.0  1.763E+06  1.957E+09
      1746     8725.0  1.776E+06  1.965E+09
      1747     8730.0  1.779E+06  1.974E+09
      1748     8735.0  1.786E+06  1.983E+09
      1749     8740.0  1.796E+06  1.992E+09
      1750     8745.0  1.801E+06  2.001E+09
      1751     8750.0  1.810E+06  2.010E+09
      1752     8755.0  1.818E+06  2.019E+09
      1753     8760.0  1.826E+06  2.029E+09
      1754     8765.0  1.828E+06  2.038E+09
      1755     8770.0  1.844E+06  2.047E+09
      1756     8775.0  1.846E+06  2.056E+09
      1757     8780.0  1.853E+06  2.065E+09
      1758     8785.0  1.862E+06  2.075E+09
      1759     8790.0  1.865E+06  2.084E+09
      1760     8795.0  1.881E+06  2.093E+09
      1761     8800.0  1.882E+06  2.103E+09
      1762     8805.0  1.890E+06  2.112E+09
      1763     8810.0  1.900E+06  2.122E+09
      1764     8815.0  1.906E+06  2.131E+09
      1765     8820.0  1.917E+06  2.141E+09
      1766     8825.0  1.920E+06  2.150E+09
      1767     8830.0  1.929E+06  2.160E+09
      1768     8835.0  1.935E+06  2.170E+09
      1769     8840.0  1.946E+06  2.180E+09
      1770     8845.0  1.952E+06  2.189E+09
      1771     8850.0  1.963E+06  2.199E+09
      1772     8855.0  1.969E+06  2.209E+09
      1773     8860.0  1.973E+06  2.219E+09
      1774     8865.0  1.982E+06  2.229E+09
      1775     8870.0  1.992E+06  2.239E+09
      1776     8875.0  2.001E+06  2.249E+09
      1777     8880.0  2.008E+06  2.259E+09
      1778     8885.0  2.011E+06  2.269E+09
      1779     8890.0  2.028E+06  2.279E+09
      1780     8895.0  2.028E+06  2.289E+09
      1781     8900.0  2.038E+06  2.299E+09
      1782     8905.0  2.051E+06  2.310E+09
      1783     8910.0  2.056E+06  2.320E+09
      1784     8915.0  2.067E+06  2.330E+09
      1785     8920.0  2.069E+06  2.340E+09
      1786     8925.0  2.082E+06  2.351E+09
      1787     8930.0  2.092E+06  2.361E+09
      1788     8935.0  2.094E+06  2.372E+09
      1789     8940.0  2.104E+06  2.382E+09
      1790     8945.0  2.116E+06  2.393E+09
      1791     8950.0  2.125E+06  2.404E+09
      1792     8955.0  2.127E+06  2.414E+09
      1793     8960.0  2.142E+06  2.425E+09
      1794     8965.0  2.151E+06  2.436E+09
      1795     8970.0  2.161E+06  2.446E+09
      1796     8975.0  2.165E+06  2.457E+09
      1797     8980.0  2.178E+06  2.468E+09
      1798     8985.0  2.184E+06  2.479E+09
      1799     8990.0  2.194E+06  2.490E+09
      1800     8995.0  2.194E+06  2.501E+09
      1801     9000.0  2.217E+06  2.512E+09
      1802     9005.0  2.218E+06  2.523E+09
      1803     9010.0  2.233E+06  2.534E+09
      1804     9015.0  2.232E+06  2.546E+09
      1805     9020.0  2.244E+06  2.557E+09
      1806     9025.0  2.260E+06  2.568E+09
      1807     9030.0  2.260E+06  2.579E+09
      1808     9035.0  2.271E+06  2.591E+09
      1809     9040.0  2.284E+06  2.602E+09
      1810     9045.0  2.298E+06  2.614E+09
      1811     9050.0  2.292E+06  2.625E+09
      1812     9055.0  2.305E+06  2.637E+09
      1813     9060.0  2.321E+06  2.648E+09
      1814     9065.0  2.327E+06  2.660E+09
      1815     9070.0  2.340E+06  2.672E+09
      1816     9075.0  2.338E+06  2.683E+09
      1817     9080.0  2.363E+06  2.695E+09
      1818     9085.0  2.364E+06  2.707E+09
      1819     9090.0  2.373E+06  2.719E+09
      1820     9095.0  2.381E+06  2.731E+09
      1821     9100.0  2.402E+06  2.743E+09
      1822     9105.0  2.394E+06  2.755E+09
      1823     9110.0  2.413E+06  2.767E+09
      1824     9115.0  2.425E+06  2.779E+09
      1825     9120.0  2.431E+06  2.791E+09
      1826     9125.0  2.443E+06  2.803E+09
      1827     9130.0  2.443E+06  2.815E+09
      1828     9135.0  2.467E+06  2.828E+09
      1829     9140.0  2.471E+06  2.840E+09
      1830     9145.0  2.470E+06  2.852E+09
      1831     9150.0  2.494E+06  2.865E+09
      1832     9155.0  2.505E+06  2.877E+09
      1833     9160.0  2.515E+06  2.890E+09
      1834     9165.0  2.511E+06  2.903E+09
      1835     9170.0  2.533E+06  2.915E+09
      1836     9175.0  2.538E+06  2.928E+09
      1837     9180.0  2.555E+06  2.941E+09
      1838     9185.0  2.550E+06  2.953E+09
      1839     9190.0  2.580E+06  2.966E+09
      1840     9195.0  2.577E+06  2.979E+09
      1841     9200.0  2.591E+06  2.992E+09
      1842     9205.0  2.608E+06  3.005E+09
      1843     9210.0  2.605E+06  3.018E+09
      1844     9215.0  2.624E+06  3.031E+09
      1845     9220.0  2.628E+06  3.044E+09
      1846     9225.0  2.647E+06  3.058E+09
      1847     9230.0  2.644E+06  3.071E+09
      1848     9235.0  2.674E+06  3.084E+09
      1849     9240.0  2.668E+06  3.098E+09
      1850     9245.0  2.688E+06  3.111E+09
      1851     9250.0  2.690E+06  3.125E+09
      1852     9255.0  2.708E+06  3.138E+09
      1853     9260.0  2.716E+06  3.152E+09
      1854     9265.0  2.721E+06  3.165E+09
      1855     9270.0  2.737E+06  3.179E+09
      1856     9275.0  2.762E+06  3.193E+09
      1857     9280.0  2.744E+06  3.206E+09
      1858     9285.0  2.770E+06  3.220E+09
      1859     9290.0  2.778E+06  3.234E+09
      1860     9295.0  2.790E+06  3.248E+09
      1861     9300.0  2.802E+06  3.262E+09
      1862     9305.0  2.806E+06  3.276E+09
      1863     9310.0  2.835E+06  3.290E+09
      1864     9315.0  2.822E+06  3.304E+09
      1865     9320.0  2.849E+06  3.319E+09
      1866     9325.0  2.869E+06  3.333E+09
      1867     9330.0  2.868E+06  3.347E+09
      1868     9335.0  2.868E+06  3.362E+09
      1869     9340.0  2.888E+06  3.376E+09
      1870     9345.0  2.910E+06  3.391E+09
      1871     9350.0  2.901E+06  3.405E+09
      1872     9355.0  2.928E+06  3.420E+09
      1873     9360.0  2.927E+06  3.435E+09
      1874     9365.0  2.954E+06  3.449E+09
      1875     9370.0  2.955E+06  3.464E+09
      1876     9375.0  2.964E+06  3.479E+09
      1877     9380.0  2.977E+06  3.494E+09
      1878     9385.0  2.987E+06  3.509E+09
      1879     9390.0  3.010E+06  3.524E+09
      1880     9395.0  3.019E+06  3.539E+09
      1881     9400.0  3.016E+06  3.554E+09
      1882     9405.0  3.035E+06  3.569E+09
      1883     9410.0  3.057E+06  3.584E+09
      1884     9415.0  3.056E+06  3.600E+09
      1885     9420.0  3.062E+06  3.615E+09
      1886     9425.0  3.084E+06  3.630E+09
      1887     9430.0  3.094E+06  3.646E+09
      1888     9435.0  3.119E+06  3.661E+09
      1889     9440.0  3.111E+06  3.677E+09
      1890     9445.0  3.128E+06  3.693E+09
      1891     9450.0  3.149E+06  3.708E+09
      1892     9455.0  3.155E+06  3.724E+09
      1893     9460.0  3.157E+06  3.740E+09
      1894     9465.0  3.193E+06  3.756E+09
      1895     9470.0  3.187E+06  3.772E+09
      1896     9475.0  3.217E+06  3.788E+09
      1897     9480.0  3.202E+06  3.804E+09
      1898     9485.0  3.226E+06  3.820E+09
      1899     9490.0  3.252E+06  3.836E+09
      1900     9495.0  3.253E+06  3.853E+09
      1901     9500.0  3.265E+06  3.869E+09
      1902     9505.0  3.284E+06  3.885E+09
      1903     9510.0  3.288E+06  3.902E+09
      1904     9515.0  3.315E+06  3.918E+09
      1905     9520.0  3.318E+06  3.935E+09
      1906     9525.0  3.317E+06  3.952E+09
      1907     9530.0  3.337E+06  3.968E+09
      1908     9535.0  3.374E+06  3.985E+09
      1909     9540.0  3.357E+06  4.002E+09
      1910     9545.0  3.383E+06  4.019E+09
      1911     9550.0  3.383E+06  4.036E+09
      1912     9555.0  3.415E+06  4.053E+09
      1913     9560.0  3.417E+06  4.070E+09
      1914     9565.0  3.431E+06  4.087E+09
      1915     9570.0  3.452E+06  4.104E+09
      1916     9575.0  3.448E+06  4.122E+09
      1917     9580.0  3.473E+06  4.139E+09
      1918     9585.0  3.487E+06  4.156E+09
      1919     9590.0  3.505E+06  4.174E+09
      1920     9595.0  3.493E+06  4.191E+09
      1921     9600.0  3.518E+06  4.209E+09
      1922     9605.0  3.540E+06  4.227E+09
      1923     9610.0  3.566E+06  4.244E+09
      1924     9615.0  3.556E+06  4.262E+09
      1925     9620.0  3.569E+06  4.280E+09
      1926     9625.0  3.602E+06  4.298E+09
      1927     9630.0  3.602E+06  4.316E+09
      1928     9635.0  3.618E+06  4.334E+09
      1929     9640.0  3.635E+06  4.352E+09
      1930     9645.0  3.655E+06  4.371E+09
      1931     9650.0  3.652E+06  4.389E+09
      1932     9655.0  3.680E+06  4.407E+09
      1933     9660.0  3.682E+06  4.426E+09
      1934     9665.0  3.719E+06  4.444E+09
      1935     9670.0  3.711E+06  4.463E+09
      1936     9675.0  3.735E+06  4.482E+09
      1937     9680.0  3.744E+06  4.500E+09
      1938     9685.0  3.763E+06  4.519E+09
      1939     9690.0  3.775E+06  4.538E+09
      1940     9695.0  3.783E+06  4.557E+09
      1941     9700.0  3.794E+06  4.576E+09
      1942     9705.0  3.833E+06  4.595E+09
      1943     9710.0  3.839E+06  4.614E+09
      1944     9715.0  3.824E+06  4.633E+09
      1945     9720.0  3.857E+06  4.653E+09
      1946     9725.0  3.883E+06  4.672E+09
      1947     9730.0  3.896E+06  4.691E+09
      1948     9735.0  3.894E+06  4.711E+09
      1949     9740.0  3.911E+06  4.731E+09
      1950     9745.0  3.946E+06  4.750E+09
      1951     9750.0  3.942E+06  4.770E+09
      1952     9755.0  3.972E+06  4.790E+09
      1953     9760.0  3.974E+06  4.810E+09
      1954     9765.0  3.990E+06  4.830E+09
      1955     9770.0  3.987E+06  4.850E+09
      1956     9775.0  4.049E+06  4.870E+09
      1957     9780.0  4.040E+06  4.890E+09
      1958     9785.0  4.037E+06  4.910E+09
      1959     9790.0  4.065E+06  4.931E+09
      1960     9795.0  4.086E+06  4.951E+09
      1961     9800.0  4.103E+06  4.971E+09
      1962     9805.0  4.116E+06  4.992E+09
      1963     9810.0  4.124E+06  5.013E+09
      1964     9815.0  4.129E+06  5.033E+09
      1965     9820.0  4.182E+06  5.054E+09
      1966     9825.0  4.157E+06  5.075E+09
      1967     9830.0  4.208E+06  5.096E+09
      1968     9835.0  4.196E+06  5.117E+09
      1969     9840.0  4.221E+06  5.138E+09
      1970     9845.0  4.243E+06  5.159E+09
      1971     9850.0  4.244E+06  5.181E+09
      1972     9855.0  4.271E+06  5.202E+09
      1973     9860.0  4.290E+06  5.223E+09
      1974     9865.0  4.274E+06  5.245E+09
      1975     9870.0  4.331E+06  5.266E+09
      1976     9875.0  4.339E+06  5.288E+09
      1977     9880.0  4.356E+06  5.310E+09
      1978     9885.0  4.357E+06  5.332E+09
      1979     9890.0  4.374E+06  5.354E+09
      1980     9895.0  4.401E+06  5.376E+09
      1981     9900.0  4.431E+06  5.398E+09
      1982     9905.0  4.432E+06  5.420E+09
      1983     9910.0  4.444E+06  5.442E+09
      1984     9915.0  4.463E+06  5.464E+09
      1985     9920.0  4.482E+06  5.487E+09
      1986     9925.0  4.513E+06  5.509E+09
      1987     9930.0  4.525E+06  5.532E+09
      1988     9935.0  4.518E+06  5.555E+09
      1989     9940.0  4.543E+06  5.577E+09
      1990     9945.0  4.562E+06  5.600E+09
      1991     9950.0  4.590E+06  5.623E+09
      1992     9955.0  4.606E+06  5.646E+09
      1993     9960.0  4.619E+06  5.669E+09
      1994     9965.0  4.635E+06  5.692E+09
      1995     9970.0  4.655E+06  5.716E+09
      1996     9975.0  4.677E+06  5.739E+09
      1997     9980.0  4.678E+06  5.762E+09
      1998     9985.0  4.715E+06  5.786E+09
      1999     9990.0  4.717E+06  5.810E+09
      2000     9995.0  4.758E+06  5.833E+09
      2001        0.0  0.000E+00  0.000E+00
      2002       60.1  0.000E+00  0.000E+00
      2003      120.2  0.000E+00  0.000E+00
      2004      180.4  2.431E-03  3.282E-02
      2005      240.5  1.697E-02  5.712E-01
      2006      300.6  5.650E-02  2.710E+00
      2007      360.7  1.412E-01  8.524E+00
      2008      420.8  3.025E-01  2.174E+01
      2009      481.0  5.926E-01  4.851E+01
      2010      541.1  1.085E+00  9.886E+01
      2011      601.2  1.871E+00  1.878E+02
      2012      661.3  3.051E+00  3.361E+02
      2013      721.4  4.730E+00  5.710E+02
      2014      781.6  6.983E+00  9.250E+02
      2015      841.7  9.868E+00  1.434E+03
      2016      901.8  1.341E+01  2.138E+03
      2017      961.9  1.762E+01  3.076E+03
      2018     1022.0  2.256E+01  4.290E+03
      2019     1082.2  2.830E+01  5.826E+03
      2020     1142.3  3.502E+01  7.737E+03
      2021     1202.4  4.304E+01  1.009E+04
      2022     1262.5  5.266E+01  1.298E+04
      2023     1322.6  6.415E+01  1.650E+04
      2024     1382.8  7.761E+01  2.078E+04
      2025     1442.9  9.308E+01  2.593E+04
      2026     1503.0  1.107E+02  3.208E+04
      2027     1563.1  1.306E+02  3.936E+04
      2028     1623.2  1.529E+02  4.791E+04
      2029     1683.4  1.784E+02  5.790E+04
      2030     1743.5  2.073E+02  6.952E+04
      2031     1803.6  2.393E+02  8.298E+04
      2032     1863.7  2.751E+02  9.849E+04
      2033     1923.8  3.153E+02  1.163E+05
      2034     1984.0  3.643E+02  1.367E+05
      2035     2044.1  4.191E+02  1.603E+05
      2036     2104.2  4.798E+02  1.874E+05
      2037     2164.3  5.476E+02  2.183E+05
      2038     2224.4  6.200E+02  2.535E+05
      2039     2284.6  7.082E+02  2.935E+05
      2040     2344.7  8.028E+02  3.390E+05
      2041     2404.8  9.082E+02  3.906E+05
      2042     2464.9  1.020E+03  4.486E+05
      2043     2525.1  1.151E+03  5.193E+05
      2044     2585.2  1.288E+03  5.928E+05
      2045     2645.3  1.455E+03  6.755E+05
      2046     2705.4  1.623E+03  7.681E+05
      2047     2765.5  1.810E+03  8.714E+05
      2048     2825.7  2.012E+03  9.863E+05
      2049     2885.8  2.258E+03  1.114E+06
      2050     2945.9  2.483E+03  1.256E+06
      2051     3006.0  2.766E+03  1.414E+06
      2052     3066.1  3.013E+03  1.588E+06
      2053     3126.3  3.307E+03  1.780E+06
      2054     3186.4  3.681E+03  1.991E+06
      2055     3246.5  4.076E+03  2.225E+06
      2056     3306.6  4.501E+03  2.482E+06
      2057     3366.7  4.944E+03  2.765E+06
      2058     3426.9  5.465E+03  3.076E+06
      2059     3487.0  5.927E+03  3.418E+06
      2060     3547.1  6.448E+03  3.792E+06
      2061     3607.2  7.157E+03  4.204E+06
      2062     3667.3  7.826E+03  4.653E+06
      2063     3727.5  8.526E+03  5.145E+06
      2064     3787.6  9.330E+03  5.682E+06
      2065     3847.7  1.015E+04  6.267E+06
      2066     3907.8  1.102E+04  6.905E+06
      2067     3967.9  1.199E+04  7.601E+06
      2068     4028.1  1.310E+04  8.357E+06
      2069     4088.2  1.422E+04  9.178E+06
      2070     4148.3  1.548E+04  1.007E+07
      2071     4208.4  1.670E+04  1.103E+07
      2072     4268.5  1.809E+04  1.208E+07
      2073     4328.7  1.959E+04  1.321E+07
      2074     4388.8  2.125E+04  1.444E+07
      2075     4448.9  2.301E+04  1.577E+07
      2076     4509.0  2.485E+04  1.720E+07
      2077     4569.1  2.668E+04  1.875E+07
      2078     4629.3  2.903E+04  2.042E+07
      2079     4689.4  3.117E+04  2.223E+07
      2080     4749.5  3.379E+04  2.418E+07
      2081     4809.6  3.617E+04  2.628E+07
      2082     4869.7  3.893E+04  2.854E+07
      2083     4929.9  4.199E+04  3.097E+07
      2084     4990.0  4.492E+04  3.359E+07
      2085     5050.1  4.854E+04  3.664E+07
      2086     5110.2  5.229E+04  3.966E+07
      2087     5170.3  5.576E+04  4.291E+07
      2088     5230.5  5.985E+04  4.639E+07
      2089     5290.6  6.455E+04  5.013E+07
      2090     5350.7  6.888E+04  5.414E+07
      2091     5410.8  7.397E+04  5.844E+07
      2092     5470.9  7.929E+04  6.304E+07
      2093     5531.1  8.477E+04  6.796E+07
      2094     5591.2  9.047E+04  7.323E+07
      2095     5651.3  9.695E+04  7.886E+07
      2096     5711.4  1.033E+05  8.487E+07
      2097     5771.5  1.102E+05  9.129E+07
      2098     5831.7  1.176E+05  9.815E+07
      2099     5891.8  1.258E+05  1.055E+08
      2100     5951.9  1.338E+05  1.133E+08
      2101     6012.0  1.426E+05  1.216E+08
      2102     6072.1  1.519E+05  1.304E+08
      2103     6132.3  1.620E+05  1.398E+08
      2104     6192.4  1.724E+05  1.499E+08
      2105     6252.5  1.831E+05  1.606E+08
      2106     6312.6  1.946E+05  1.719E+08
      2107     6372.7  2.071E+05  1.840E+08
      2108     6432.9  2.197E+05  1.969E+08
      2109     6493.0  2.336E+05  2.105E+08
      2110     6553.1  2.477E+05  2.250E+08
      2111     6613.2  2.634E+05  2.404E+08
      2112     6673.3  2.797E+05  2.567E+08
      2113     6733.5  2.962E+05  2.740E+08
      2114     6793.6  3.142E+05  2.924E+08
      2115     6853.7  3.331E+05  3.119E+08
      2116     6913.8  3.524E+05  3.325E+08
      2117     6973.9  3.741E+05  3.544E+08
      2118     7034.1  3.959E+05  3.775E+08
      2119     7094.2  4.190E+05  4.020E+08
      2120     7154.3  4.445E+05  4.280E+08
      2121     7214.4  4.691E+05  4.554E+08
      2122     7274.5  4.968E+05  4.845E+08
      2123     7334.7  5.249E+05  5.152E+08
      2124     7394.8  5.549E+05  5.476E+08
      2125     7454.9  5.857E+05  5.819E+08
      2126     7515.0  6.225E+05  6.213E+08
      2127     7575.2  6.570E+05  6.597E+08
      2128     7635.3  6.933E+05  7.004E+08
      2129     7695.4  7.319E+05  7.432E+08
      2130     7755.5  7.715E+05  7.884E+08
      2131     7815.6  8.141E+05  8.361E+08
      2132     7875.8  8.591E+05  8.864E+08
      2133     7935.9  9.049E+05  9.394E+08
      2134     7996.0  9.542E+05  9.953E+08
      2135     8056.1  1.005E+06  1.054E+09
      2136     8116.2  1.060E+06  1.116E+09
      2137     8176.4  1.117E+06  1.182E+09
      2138     8236.5  1.175E+06  1.251E+09
      2139     8296.6  1.238E+06  1.323E+09
      2140     8356.7  1.304E+06  1.400E+09
      2141     8416.8  1.371E+06  1.480E+09
      2142     8477.0  1.437E+06  1.564E+09
      2143     8537.1  1.515E+06  1.653E+09
      2144     8597.2  1.591E+06  1.747E+09
      2145     8657.3  1.674E+06  1.845E+09
      2146     8717.4  1.762E+06  1.948E+09
      2147     8777.6  1.846E+06  2.056E+09
      2148     8837.7  1.935E+06  2.170E+09
      2149     8897.8  2.028E+06  2.289E+09
      2150     8957.9  2.127E+06  2.414E+09
      2151     9018.0  2.232E+06  2.546E+09
      2152     9078.2  2.338E+06  2.683E+09
      2153     9138.3  2.467E+06  2.828E+09
      2154     9198.4  2.577E+06  2.979E+09
      2155     9258.5  2.708E+06  3.138E+09
      2156     9318.6  2.822E+06  3.304E+09
      2157     9378.8  2.964E+06  3.479E+09
      2158     9438.9  3.119E+06  3.661E+09
      2159     9499.0  3.253E+06  3.853E+09
      2160     9559.1  3.415E+06  4.053E+09
      2161     9619.2  3.556E+06  4.262E+09
      2162     9679.4  3.735E+06  4.482E+09
      2163     9739.5  3.894E+06  4.711E+09
      2164     9799.6  4.086E+06  4.951E+09
      2165     9859.7  4.271E+06  5.202E+09
      2166     9919.8  4.463E+06  5.464E+09
      2167     9980.0  4.677E+06  5.739E+09
      2168    10040.1  4.894E+06  6.051E+09
      2169    10100.2  5.134E+06  6.352E+09
      2170    10160.3  5.359E+06  6.668E+09
      2171    10220.4  5.576E+06  6.997E+09
      2172    10280.6  5.830E+06  7.340E+09
      2173    10340.7  6.127E+06  7.699E+09
      2174    10400.8  6.380E+06  8.074E+09
      2175    10460.9  6.650E+06  8.465E+09
      2176    10521.0  6.947E+06  8.873E+09
      2177    10581.2  7.247E+06  9.299E+09
      2178    10641.3  7.560E+06  9.744E+09
      2179    10701.4  7.864E+06  1.021E+10
      2180    10761.5  8.177E+06  1.069E+10
      2181    10821.6  8.531E+06  1.119E+10
      2182    10881.8  8.892E+06  1.171E+10
      2183    10941.9  9.246E+06  1.226E+10
      2184    11002.0  9.676E+06  1.283E+10
      2185    11062.1  1.006E+07  1.342E+10
      2186    11122.2  1.051E+07  1.403E+10
      2187    11182.4  1.089E+07  1.468E+10
      2188    11242.5  1.138E+07  1.535E+10
      2189    11302.6  1.179E+07  1.604E+10
      2190    11362.7  1.231E+07  1.677E+10
      2191    11422.8  1.280E+07  1.752E+10
      2192    11483.0  1.330E+07  1.830E+10
      2193    11543.1  1.387E+07  1.912E+10
      2194    11603.2  1.435E+07  1.997E+10
      2195    11663.3  1.500E+07  2.085E+10
      2196    11723.4  1.549E+07  2.177E+10
      2197    11783.6  1.618E+07  2.272E+10
      2198    11843.7  1.680E+07  2.372E+10
      2199    11903.8  1.757E+07  2.475E+10
      2200    11963.9  1.822E+07  2.582E+10
      2201    12024.0  1.884E+07  2.694E+10
      2202    12084.2  1.966E+07  2.810E+10
      2203    12144.3  2.036E+07  2.930E+10
      2204    12204.4  2.106E+07  3.055E+10
      2205    12264.5  2.194E+07  3.185E+10
      2206    12324.6  2.285E+07  3.320E+10
      2207    12384.8  2.385E+07  3.460E+10
      2208    12444.9  2.466E+07  3.605E+10
      2209    12505.0  2.573E+07  3.769E+10
      2210    12565.1  2.678E+07  3.926E+10
      2211    12625.3  2.765E+07  4.089E+10
      2212    12685.4  2.876E+07  4.258E+10
      2213    12745.5  2.974E+07  4.433E+10
      2214    12805.6  3.082E+07  4.615E+10
      2215    12865.7  3.192E+07  4.804E+10
      2216    12925.9  3.315E+07  5.000E+10
      2217    12986.0  3.451E+07  5.203E+10
      2218    13046.1  3.549E+07  5.413E+10
      2219    13106.2  3.689E+07  5.631E+10
      2220    13166.3  3.829E+07  5.858E+10
      2221    13226.5  3.979E+07  6.092E+10
      2222    13286.6  4.126E+07  6.335E+10
      2223    13346.7  4.283E+07  6.587E+10
      2224    13406.8  4.391E+07  6.848E+10
      2225    13466.9  4.572E+07  7.118E+10
      2226    13527.1  4.736E+07  7.398E+10
      2227    13587.2  4.963E+07  7.688E+10
      2228    13647.3  5.085E+07  7.988E+10
      2229    13707.4  5.283E+07  8.299E+10
      2230    13767.5  5.468E+07  8.621E+10
      2231    13827.7  5.649E+07  8.954E+10
      2232    13887.8  5.847E+07  9.299E+10
      2233    13947.9  6.077E+07  9.656E+10
      2234    14008.0  6.226E+07  1.002E+11
      2235    14068.1  6.496E+07  1.041E+11
      2236    14128.3  6.707E+07  1.080E+11
      2237    14188.4  6.901E+07  1.121E+11
      2238    14248.5  7.219E+07  1.163E+11
      2239    14308.6  7.337E+07  1.207E+11
      2240    14368.7  7.629E+07  1.252E+11
      2241    14428.9  7.871E+07  1.299E+11
      2242    14489.0  8.144E+07  1.347E+11
      2243    14549.1  8.421E+07  1.397E+11
      2244    14609.2  8.689E+07  1.449E+11
      2245    14669.3  9.030E+07  1.502E+11
      2246    14729.5  9.342E+07  1.557E+11
      2247    14789.6  9.542E+07  1.614E+11
      2248    14849.7  9.938E+07  1.673E+11
      2249    14909.8  1.010E+08  1.733E+11
      2250    14969.9  1.057E+08  1.796E+11
      2251    15030.1  1.104E+08  1.866E+11
      2252    15090.2  1.140E+08  1.933E+11
      2253    15150.3  1.167E+08  2.002E+11
      2254    15210.4  1.208E+08  2.074E+11
      2255    15270.5  1.242E+08  2.147E+11
      2256    15330.7  1.285E+08  2.223E+11
      2257    15390.8  1.320E+08  2.302E+11
      2258    15450.9  1.363E+08  2.383E+11
      2259    15511.0  1.425E+08  2.466E+11
      2260    15571.1  1.442E+08  2.553E+11
      2261    15631.3  1.496E+08  2.641E+11
      2262    15691.4  1.559E+08  2.733E+11
      2263    15751.5  1.590E+08  2.828E+11
      2264    15811.6  1.654E+08  2.925E+11
      2265    15871.7  1.708E+08  3.026E+11
      2266    15931.9  1.738E+08  3.129E+11
      2267    15992.0  1.809E+08  3.236E+11
      2268    16052.1  1.846E+08  3.346E+11
      2269    16112.2  1.916E+08  3.459E+11
      2270    16172.3  1.965E+08  3.575E+11
      2271    16232.5  2.047E+08  3.695E+11
      2272    16292.6  2.093E+08  3.818E+11
      2273    16352.7  2.143E+08  3.945E+11
      2274    16412.8  2.213E+08  4.075E+11
      2275    16472.9  2.254E+08  4.209E+11
      2276    16533.1  2.320E+08  4.346E+11
      2277    16593.2  2.385E+08  4.488E+11
      2278    16653.3  2.452E+08  4.633E+11
      2279    16713.4  2.526E+08  4.782E+11
      2280    16773.5  2.583E+08  4.935E+11
      2281    16833.7  2.676E+08  5.092E+11
      2282    16893.8  2.758E+08  5.254E+11
      2283    16953.9  2.811E+08  5.420E+11
      2284    17014.0  2.846E+08  5.590E+11
      2285    17074.1  2.931E+08  5.765E+11
      2286    17134.3  3.027E+08  5.945E+11
      2287    17194.4  3.112E+08  6.130E+11
      2288    17254.5  3.233E+08  6.319E+11
      2289    17314.6  3.275E+08  6.513E+11
      2290    17374.7  3.376E+08  6.713E+11
      2291    17434.9  3.438E+08  6.917E+11
      2292    17495.0  3.549E+08  7.127E+11
      2293    17555.1  3.629E+08  7.361E+11
      2294    17615.2  3.746E+08  7.582E+11
      2295    17675.4  3.887E+08  7.809E+11
      2296    17735.5  3.922E+08  8.042E+11
      2297    17795.6  4.054E+08  8.282E+11
      2298    17855.7  4.165E+08  8.527E+11
      2299    17915.8  4.267E+08  8.778E+11
      2300    17976.0  4.355E+08  9.036E+11
      2301    18036.1  4.414E+08  9.301E+11
      2302    18096.2  4.540E+08  9.572E+11
      2303    18156.3  4.713E+08  9.851E+11
      2304    18216.4  4.808E+08  1.014E+12
      2305    18276.6  4.884E+08  1.043E+12
      2306    18336.7  5.017E+08  1.073E+12
      2307    18396.8  5.166E+08  1.104E+12
      2308    18456.9  5.376E+08  1.135E+12
      2309    18517.0  5.462E+08  1.167E+12
      2310    18577.2  5.628E+08  1.201E+12
      2311    18637.3  5.699E+08  1.234E+12
      2312    18697.4  5.863E+08  1.269E+12
      2313    18757.5  6.028E+08  1.305E+12
      2314    18817.6  6.147E+08  1.341E+12
      2315    18877.8  6.326E+08  1.379E+12
      2316    18937.9  6.445E+08  1.417E+12
      2317    18998.0  6.633E+08  1.457E+12
      2318    19058.1  6.824E+08  1.497E+12
      2319    19118.2  6.995E+08  1.538E+12
      2320    19178.4  7.176E+08  1.580E+12
      2321    19238.5  7.251E+08  1.624E+12
      2322    19298.6  7.531E+08  1.668E+12
      2323    19358.7  7.683E+08  1.714E+12
      2324    19418.8  7.851E+08  1.760E+12
      2325    19479.0  8.044E+08  1.808E+12
      2326    19539.1  8.248E+08  1.857E+12
      2327    19599.2  8.313E+08  1.907E+12
      2328    19659.3  8.648E+08  1.958E+12
      2329    19719.4  8.785E+08  2.011E+12
      2330    19779.6  9.015E+08  2.065E+12
      2331    19839.7  9.286E+08  2.120E+12
      2332    19899.8  9.456E+08  2.176E+12
      2333    19959.9  9.696E+08  2.234E+12
      2334    20020.0  9.885E+08  2.298E+12
      2335    20080.2  1.011E+09  2.359E+12
      2336    20140.3  1.042E+09  2.421E+12
      2337    20200.4  1.071E+09  2.484E+12
      2338    20260.5  1.090E+09  2.549E+12
      2339    20320.6  1.110E+09  2.616E+12
      2340    20380.8  1.151E+09  2.684E+12
      2341    20440.9  1.179E+09  2.754E+12
      2342    20501.0  1.200E+09  2.825E+12
      2343    20561.1  1.235E+09  2.898E+12
      2344    20621.2  1.259E+09  2.973E+12
      2345    20681.4  1.291E+09  3.050E+12
      2346    20741.5  1.311E+09  3.128E+12
      2347    20801.6  1.357E+09  3.208E+12
      2348    20861.7  1.379E+09  3.290E+12
      2349    20921.8  1.414E+09  3.374E+12
      2350    20982.0  1.453E+09  3.460E+12
      2351    21042.1  1.469E+09  3.548E+12
      2352    21102.2  1.517E+09  3.637E+12
      2353    21162.3  1.543E+09  3.729E+12
      2354    21222.4  1.590E+09  3.823E+12
      2355    21282.6  1.630E+09  3.920E+12
      2356    21342.7  1.668E+09  4.018E+12
      2357    21402.8  1.693E+09  4.119E+12
      2358    21462.9  1.736E+09  4.221E+12
      2359    21523.0  1.775E+09  4.327E+12
      2360    21583.2  1.816E+09  4.434E+12
      2361    21643.3  1.845E+09  4.544E+12
      2362    21703.4  1.885E+09  4.656E+12
      2363    21763.5  1.926E+09  4.771E+12
      2364    21823.6  1.985E+09  4.889E+12
      2365    21883.8  2.013E+09  5.009E+12
      2366    21943.9  2.053E+09  5.132E+12
      2367    22004.0  2.122E+09  5.257E+12
      2368    22064.1  2.160E+09  5.386E+12
      2369    22124.2  2.203E+09  5.517E+12
      2370    22184.4  2.264E+09  5.651E+12
      2371    22244.5  2.308E+09  5.788E+12
      2372    22304.6  2.360E+09  5.928E+12
      2373    22364.7  2.421E+09  6.071E+12
      2374    22424.8  2.462E+09  6.217E+12
      2375    22485.0  2.505E+09  6.366E+12
      2376    22545.1  2.571E+09  6.532E+12
      2377    22605.2  2.635E+09  6.688E+12
      2378    22665.3  2.677E+09  6.848E+12
      2379    22725.5  2.752E+09  7.011E+12
      2380    22785.6  2.811E+09  7.178E+12
      2381    22845.7  2.865E+09  7.348E+12
      2382    22905.8  2.922E+09  7.522E+12
      2383    22965.9  2.990E+09  7.699E+12
      2384    23026.1  3.071E+09  7.881E+12
      2385    23086.2  3.094E+09  8.066E+12
      2386    23146.3  3.188E+09  8.255E+12
      2387    23206.4  3.265E+09  8.448E+12
      2388    23266.5  3.315E+09  8.646E+12
      2389    23326.7  3.403E+09  8.847E+12
      2390    23386.8  3.466E+09  9.053E+12
      2391    23446.9  3.542E+09  9.263E+12
      2392    23507.0  3.610E+09  9.478E+12
      2393    23567.1  3.692E+09  9.697E+12
      2394    23627.3  3.766E+09  9.921E+12
      2395    23687.4  3.852E+09  1.015E+13
      2396    23747.5  3.907E+09  1.038E+13
      2397    23807.6  3.990E+09  1.062E+13
      2398    23867.7  4.076E+09  1.086E+13
      2399    23927.9  4.175E+09  1.111E+13
      2400    23988.0  4.257E+09  1.137E+13
      2401    24048.1  4.347E+09  1.163E+13
      2402    24108.2  4.468E+09  1.189E+13
      2403    24168.3  4.535E+09  1.216E+13
      2404    24228.5  4.617E+09  1.243E+13
      2405    24288.6  4.728E+09  1.272E+13
      2406    24348.7  4.829E+09  1.300E+13
      2407    24408.8  4.940E+09  1.329E+13
      2408    24468.9  5.028E+09  1.359E+13
      2409    24529.1  5.098E+09  1.390E+13
      2410    24589.2  5.208E+09  1.421E+13
      2411    24649.3  5.328E+09  1.453E+13
      2412    24709.4  5.422E+09  1.485E+13
      2413    24769.5  5.536E+09  1.518E+13
      2414    24829.7  5.664E+09  1.552E+13
      2415    24889.8  5.772E+09  1.586E+13
      2416    24949.9  5.889E+09  1.621E+13
      2417    25010.0  6.013E+09  1.660E+13
      2418    25070.1  6.154E+09  1.696E+13
      2419    25130.3  6.253E+09  1.734E+13
      2420    25190.4  6.409E+09  1.772E+13
      2421    25250.5  6.520E+09  1.810E+13
      2422    25310.6  6.639E+09  1.850E+13
      2423    25370.7  6.776E+09  1.890E+13
      2424    25430.9  6.898E+09  1.931E+13
      2425    25491.0  7.047E+09  1.973E+13
      2426    25551.1  7.218E+09  2.016E+13
      2427    25611.2  7.263E+09  2.059E+13
      2428    25671.3  7.439E+09  2.103E+13
      2429    25731.5  7.531E+09  2.148E+13
      2430    25791.6  7.729E+09  2.194E+13
      2431    25851.7  7.864E+09  2.241E+13
      2432    25911.8  8.020E+09  2.289E+13
      2433    25971.9  8.202E+09  2.338E+13
      2434    26032.1  8.318E+09  2.387E+13
      2435    26092.2  8.503E+09  2.438E+13
      2436    26152.3  8.640E+09  2.489E+13
      2437    26212.4  8.787E+09  2.541E+13
      2438    26272.5  8.937E+09  2.595E+13
      2439    26332.7  9.152E+09  2.649E+13
      2440    26392.8  9.278E+09  2.704E+13
      2441    26452.9  9.450E+09  2.761E+13
      2442    26513.0  9.614E+09  2.818E+13
      2443    26573.1  9.786E+09  2.877E+13
      2444    26633.3  1.000E+10  2.936E+13
      2445    26693.4  1.015E+10  2.997E+13
      2446    26753.5  1.042E+10  3.059E+13
      2447    26813.6  1.056E+10  3.121E+13
      2448    26873.7  1.073E+10  3.185E+13
      2449    26933.9  1.098E+10  3.251E+13
      2450    26994.0  1.109E+10  3.317E+13
      2451    27054.1  1.134E+10  3.385E+13
      2452    27114.2  1.147E+10  3.453E+13
      2453    27174.3  1.171E+10  3.523E+13
      2454    27234.5  1.191E+10  3.595E+13
      2455    27294.6  1.213E+10  3.667E+13
      2456    27354.7  1.230E+10  3.741E+13
      2457    27414.8  1.263E+10  3.816E+13
      2458    27474.9  1.279E+10  3.893E+13
      2459    27535.1  1.313E+10  3.977E+13
      2460    27595.2  1.338E+10  4.057E+13
      2461    27655.3  1.356E+10  4.137E+13
      2462    27715.4  1.381E+10  4.219E+13
      2463    27775.6  1.407E+10  4.303E+13
      2464    27835.7  1.428E+10  4.388E+13
      2465    27895.8  1.450E+10  4.475E+13
      2466    27955.9  1.478E+10  4.563E+13
      2467    28016.0  1.499E+10  4.653E+13
      2468    28076.2  1.536E+10  4.744E+13
      2469    28136.3  1.555E+10  4.837E+13
      2470    28196.4  1.584E+10  4.931E+13
      2471    28256.5  1.622E+10  5.027E+13
      2472    28316.6  1.642E+10  5.125E+13
      2473    28376.8  1.679E+10  5.225E+13
      2474    28436.9  1.698E+10  5.326E+13
      2475    28497.0  1.735E+10  5.429E+13
      2476    28557.1  1.769E+10  5.533E+13
      2477    28617.2  1.789E+10  5.640E+13
      2478    28677.4  1.824E+10  5.748E+13
      2479    28737.5  1.858E+10  5.858E+13
      2480    28797.6  1.890E+10  5.970E+13
      2481    28857.7  1.914E+10  6.084E+13
      2482    28917.8  1.948E+10  6.200E+13
      2483    28978.0  1.999E+10  6.319E+13
      2484    29038.1  2.019E+10  6.438E+13
      2485    29098.2  2.045E+10  6.561E+13
      2486    29158.3  2.087E+10  6.685E+13
      2487    29218.4  2.116E+10  6.811E+13
      2488    29278.6  2.147E+10  6.939E+13
      2489    29338.7  2.168E+10  7.070E+13
      2490    29398.8  2.221E+10  7.203E+13
      2491    29458.9  2.244E+10  7.338E+13
      2492    29519.0  2.303E+10  7.475E+13
      2493    29579.2  2.338E+10  7.614E+13
      2494    29639.3  2.388E+10  7.756E+13
      2495    29699.4  2.428E+10  7.901E+13
      2496    29759.5  2.462E+10  8.047E+13
      2497    29819.6  2.513E+10  8.197E+13
      2498    29879.8  2.559E+10  8.348E+13
      2499    29939.9  2.595E+10  8.503E+13
      2500    30000.0  2.628E+10  8.673E+13
