**************INPUT DATA SUMMARY**************
%%%%%%%%%%%%%%%%%%%%%%%%%%%%%%%%%%%%%%%%%%%%%%%%%%%%%%%%%%%%%%%%%%%%%%%%%%%%%%

                     bdens-2017    (Jan 2017)

Copyright (C) 2016, 2017 Collin G.L. Li, Thanh Lam Nguyen, and John R. Barker

        CONTACT:         John R. Barker
                      (jrbarker@umich.edu)
                     University of Michigan
                  Ann Arbor, Michigan 48109-2143

         http://clasp-research.engin.umich.edu/multiwell/

%%%%%%%%%%%%%%%%%%%%%%%%%%%%%%%%%%%%%%%%%%%%%%%%%%%%%%%%%%%%%%%%%%%%%%%%%%%%%%

Suggested Literature Citations:

    a) J.R. Barker, T.L. Nguyen, J.F. Stanton, C. Aieta, M. Ceotto,
       F. Gabas, T.J.D. Kumar, C.G.L.Li, L.L.Lohr, A. Maranzana,
       N.F. Ortiz, J.M. Preses, J.M. Simmie, J.A. Sonk, and P.J. Stimac; 
       MultiWell-2017    Software Suite; University of Michigan, 
       Ann Arbor, Michigan, USA, Jan 2017; 
       http://clasp-research.engin.umich.edu/multiwell/.

    b) J.R. Barker, Int. J. Chem. Kinetics, 33, 232-45 (2001)

    c) J.R. Barker, Int. J. Chem. Kinetics, 41, 748-763 (2009)

    b) F. Wang and D.P. Landau, Phys. Rev. Letters 86, 
       2050-2053 (2001).

    c) M. Basire, P. Parneix, and F. Calvo, J. Chem. Phys. 129,
       081101 (2008).

    d) T.L. Nguyen and J.R. Barker, J. Phys. Chem. A., 114,
       3718-3730 (2010).

%%%%%%%%%%%%%%%%%%%%%%%%%%%%%%%%%%%%%%%%%%%%%%%%%%%%%%%%%%%%%%%%%%%%%%%%%%%%%%

ch4       
methane                                                                                             
harmonic freq: aVTZ; anharmonicities: aVDZ                                                          

....................................................
          2017/02/08   08:18:56.876   (Local Time)
          year/mm/dd   hr:mi:second
                 CPU :        0.004 s (  0.000 hr)
....................................................
  9 Vibrational Frequencies (cm-1)  
  We; E = We*(v+1/2) +...; Wo: E = W0*v +...;  0<->1 fund.  
  De: BDE for Separable Morse oscillator [0.0 if non-Morse]

  No.     We         Wo      0-1_Fund.   De(cm-1)
    1   1350.642   1322.677   1318.931   116759.4
    2   1350.642   1325.153   1318.944    70708.5
    3   1350.642   1325.152   1318.943    70706.1
    4   1573.711   1539.290   1538.596   853781.2
    5   1573.711   1579.162   1578.469   899621.7
    6   3027.536   2909.713   2896.033   154718.3
    7   3146.543   3026.434   3010.027   139564.8
    8   3146.543   3040.078   3006.291    68383.6
    9   3146.543   3040.079   3006.291    68383.9
Anharmonicity Matrix (cm-1)
         1         2         3         4         5         6         7         8         9
  1    -3.746    -5.777    -5.777   -10.953     2.650    -2.261    -9.110    -8.604    -8.604
  2    -5.777    -6.209     4.086    -0.747    -7.550    -2.260    -8.602    -9.274    -8.436
  3    -5.777     4.086    -6.209    -0.747    -7.551    -2.260    -8.602    -8.436    -9.274
  4   -10.953    -0.747    -0.747    -0.694    -0.619   -14.514   -10.799   -14.537   -14.537
  5     2.650    -7.550    -7.551    -0.619    -0.693   -14.514    15.784    12.044    12.044
  6    -2.261    -2.260    -2.260   -14.514   -14.514   -13.680   -57.491   -57.492   -57.491
  7    -9.110    -8.602    -8.602   -10.799    15.784   -57.491   -16.407   -64.291   -64.291
  8    -8.604    -9.274    -8.436   -14.537    12.044   -57.492   -64.291   -33.788     5.237
  9    -8.604    -8.436    -9.274   -14.537    12.044   -57.491   -64.291     5.237   -33.788


 SEPARABLE DEGREES OF FREEDOM

 10  Quantized Rotor:  I(Amu.A**2) =    3.200 ;  Sym. = 1 ;  Dim. =  3 ;  B(cm-1) =    5.269
  
AUTO  : Eswitch = 25000.0

 --- END INPUT ---

TOTAL ZPEanh:   9693.563 cm-1 for all coupled & separable D.O.F.; omits Go from VPT2.

Eswitch =   25000.0 cm-1 (AUTO)

**************INPUT DATA SUMMARY**************
 ch4
 methane                                                                                             
        5.0        501    25000.0        752     1350.6    9693.56
       No.     (cm-1)   Density    Sum
         1        0.0 2.0000E-01 1.0000E+00
         2        5.0 0.0000E+00 1.0000E+00
         3       10.0 1.8000E+00 1.0000E+01
         4       15.0 0.0000E+00 1.0000E+01
         5       20.0 0.0000E+00 1.0000E+01
         6       25.0 0.0000E+00 1.0000E+01
         7       30.0 5.0000E+00 3.5000E+01
         8       35.0 0.0000E+00 3.5000E+01
         9       40.0 0.0000E+00 3.5000E+01
        10       45.0 0.0000E+00 3.5000E+01
        11       50.0 0.0000E+00 3.5000E+01
        12       55.0 0.0000E+00 3.5000E+01
        13       60.0 0.0000E+00 3.5000E+01
        14       65.0 9.8000E+00 8.4000E+01
        15       70.0 0.0000E+00 8.4000E+01
        16       75.0 0.0000E+00 8.4000E+01
        17       80.0 0.0000E+00 8.4000E+01
        18       85.0 0.0000E+00 8.4000E+01
        19       90.0 0.0000E+00 8.4000E+01
        20       95.0 0.0000E+00 8.4000E+01
        21      100.0 0.0000E+00 8.4000E+01
        22      105.0 1.6200E+01 1.6500E+02
        23      110.0 0.0000E+00 1.6500E+02
        24      115.0 0.0000E+00 1.6500E+02
        25      120.0 0.0000E+00 1.6500E+02
        26      125.0 0.0000E+00 1.6500E+02
        27      130.0 0.0000E+00 1.6500E+02
        28      135.0 0.0000E+00 1.6500E+02
        29      140.0 0.0000E+00 1.6500E+02
        30      145.0 0.0000E+00 1.6500E+02
        31      150.0 0.0000E+00 1.6500E+02
        32      155.0 0.0000E+00 1.6500E+02
        33      160.0 2.4200E+01 2.8600E+02
        34      165.0 0.0000E+00 2.8600E+02
        35      170.0 0.0000E+00 2.8600E+02
        36      175.0 0.0000E+00 2.8600E+02
        37      180.0 0.0000E+00 2.8600E+02
        38      185.0 0.0000E+00 2.8600E+02
        39      190.0 0.0000E+00 2.8600E+02
        40      195.0 0.0000E+00 2.8600E+02
        41      200.0 0.0000E+00 2.8600E+02
        42      205.0 0.0000E+00 2.8600E+02
        43      210.0 0.0000E+00 2.8600E+02
        44      215.0 0.0000E+00 2.8600E+02
        45      220.0 3.3800E+01 4.5500E+02
        46      225.0 0.0000E+00 4.5500E+02
        47      230.0 0.0000E+00 4.5500E+02
        48      235.0 0.0000E+00 4.5500E+02
        49      240.0 0.0000E+00 4.5500E+02
        50      245.0 0.0000E+00 4.5500E+02
        51      250.0 0.0000E+00 4.5500E+02
        52      255.0 0.0000E+00 4.5500E+02
        53      260.0 0.0000E+00 4.5500E+02
        54      265.0 0.0000E+00 4.5500E+02
        55      270.0 0.0000E+00 4.5500E+02
        56      275.0 0.0000E+00 4.5500E+02
        57      280.0 0.0000E+00 4.5500E+02
        58      285.0 0.0000E+00 4.5500E+02
        59      290.0 0.0000E+00 4.5500E+02
        60      295.0 4.5000E+01 6.8000E+02
        61      300.0 0.0000E+00 6.8000E+02
        62      305.0 0.0000E+00 6.8000E+02
        63      310.0 0.0000E+00 6.8000E+02
        64      315.0 0.0000E+00 6.8000E+02
        65      320.0 0.0000E+00 6.8000E+02
        66      325.0 0.0000E+00 6.8000E+02
        67      330.0 0.0000E+00 6.8000E+02
        68      335.0 0.0000E+00 6.8000E+02
        69      340.0 0.0000E+00 6.8000E+02
        70      345.0 0.0000E+00 6.8000E+02
        71      350.0 0.0000E+00 6.8000E+02
        72      355.0 0.0000E+00 6.8000E+02
        73      360.0 0.0000E+00 6.8000E+02
        74      365.0 0.0000E+00 6.8000E+02
        75      370.0 0.0000E+00 6.8000E+02
        76      375.0 0.0000E+00 6.8000E+02
        77      380.0 5.7800E+01 9.6900E+02
        78      385.0 0.0000E+00 9.6900E+02
        79      390.0 0.0000E+00 9.6900E+02
        80      395.0 0.0000E+00 9.6900E+02
        81      400.0 0.0000E+00 9.6900E+02
        82      405.0 0.0000E+00 9.6900E+02
        83      410.0 0.0000E+00 9.6900E+02
        84      415.0 0.0000E+00 9.6900E+02
        85      420.0 0.0000E+00 9.6900E+02
        86      425.0 0.0000E+00 9.6900E+02
        87      430.0 0.0000E+00 9.6900E+02
        88      435.0 0.0000E+00 9.6900E+02
        89      440.0 0.0000E+00 9.6900E+02
        90      445.0 0.0000E+00 9.6900E+02
        91      450.0 0.0000E+00 9.6900E+02
        92      455.0 0.0000E+00 9.6900E+02
        93      460.0 0.0000E+00 9.6900E+02
        94      465.0 0.0000E+00 9.6900E+02
        95      470.0 0.0000E+00 9.6900E+02
        96      475.0 7.2200E+01 1.3300E+03
        97      480.0 0.0000E+00 1.3300E+03
        98      485.0 0.0000E+00 1.3300E+03
        99      490.0 0.0000E+00 1.3300E+03
       100      495.0 0.0000E+00 1.3300E+03
       101      500.0 0.0000E+00 1.3300E+03
       102      505.0 0.0000E+00 1.3300E+03
       103      510.0 0.0000E+00 1.3300E+03
       104      515.0 0.0000E+00 1.3300E+03
       105      520.0 0.0000E+00 1.3300E+03
       106      525.0 0.0000E+00 1.3300E+03
       107      530.0 0.0000E+00 1.3300E+03
       108      535.0 0.0000E+00 1.3300E+03
       109      540.0 0.0000E+00 1.3300E+03
       110      545.0 0.0000E+00 1.3300E+03
       111      550.0 0.0000E+00 1.3300E+03
       112      555.0 0.0000E+00 1.3300E+03
       113      560.0 0.0000E+00 1.3300E+03
       114      565.0 0.0000E+00 1.3300E+03
       115      570.0 0.0000E+00 1.3300E+03
       116      575.0 0.0000E+00 1.3300E+03
       117      580.0 8.8200E+01 1.7710E+03
       118      585.0 0.0000E+00 1.7710E+03
       119      590.0 0.0000E+00 1.7710E+03
       120      595.0 0.0000E+00 1.7710E+03
       121      600.0 0.0000E+00 1.7710E+03
       122      605.0 0.0000E+00 1.7710E+03
       123      610.0 0.0000E+00 1.7710E+03
       124      615.0 0.0000E+00 1.7710E+03
       125      620.0 0.0000E+00 1.7710E+03
       126      625.0 0.0000E+00 1.7710E+03
       127      630.0 0.0000E+00 1.7710E+03
       128      635.0 0.0000E+00 1.7710E+03
       129      640.0 0.0000E+00 1.7710E+03
       130      645.0 0.0000E+00 1.7710E+03
       131      650.0 0.0000E+00 1.7710E+03
       132      655.0 0.0000E+00 1.7710E+03
       133      660.0 0.0000E+00 1.7710E+03
       134      665.0 0.0000E+00 1.7710E+03
       135      670.0 0.0000E+00 1.7710E+03
       136      675.0 0.0000E+00 1.7710E+03
       137      680.0 0.0000E+00 1.7710E+03
       138      685.0 0.0000E+00 1.7710E+03
       139      690.0 0.0000E+00 1.7710E+03
       140      695.0 1.0580E+02 2.3000E+03
       141      700.0 0.0000E+00 2.3000E+03
       142      705.0 0.0000E+00 2.3000E+03
       143      710.0 0.0000E+00 2.3000E+03
       144      715.0 0.0000E+00 2.3000E+03
       145      720.0 0.0000E+00 2.3000E+03
       146      725.0 0.0000E+00 2.3000E+03
       147      730.0 0.0000E+00 2.3000E+03
       148      735.0 0.0000E+00 2.3000E+03
       149      740.0 0.0000E+00 2.3000E+03
       150      745.0 0.0000E+00 2.3000E+03
       151      750.0 0.0000E+00 2.3000E+03
       152      755.0 0.0000E+00 2.3000E+03
       153      760.0 0.0000E+00 2.3000E+03
       154      765.0 0.0000E+00 2.3000E+03
       155      770.0 0.0000E+00 2.3000E+03
       156      775.0 0.0000E+00 2.3000E+03
       157      780.0 0.0000E+00 2.3000E+03
       158      785.0 0.0000E+00 2.3000E+03
       159      790.0 0.0000E+00 2.3000E+03
       160      795.0 0.0000E+00 2.3000E+03
       161      800.0 0.0000E+00 2.3000E+03
       162      805.0 0.0000E+00 2.3000E+03
       163      810.0 0.0000E+00 2.3000E+03
       164      815.0 0.0000E+00 2.3000E+03
       165      820.0 1.2500E+02 2.9250E+03
       166      825.0 0.0000E+00 2.9250E+03
       167      830.0 0.0000E+00 2.9250E+03
       168      835.0 0.0000E+00 2.9250E+03
       169      840.0 0.0000E+00 2.9250E+03
       170      845.0 0.0000E+00 2.9250E+03
       171      850.0 0.0000E+00 2.9250E+03
       172      855.0 0.0000E+00 2.9250E+03
       173      860.0 0.0000E+00 2.9250E+03
       174      865.0 0.0000E+00 2.9250E+03
       175      870.0 0.0000E+00 2.9250E+03
       176      875.0 0.0000E+00 2.9250E+03
       177      880.0 0.0000E+00 2.9250E+03
       178      885.0 0.0000E+00 2.9250E+03
       179      890.0 0.0000E+00 2.9250E+03
       180      895.0 0.0000E+00 2.9250E+03
       181      900.0 0.0000E+00 2.9250E+03
       182      905.0 0.0000E+00 2.9250E+03
       183      910.0 0.0000E+00 2.9250E+03
       184      915.0 0.0000E+00 2.9250E+03
       185      920.0 0.0000E+00 2.9250E+03
       186      925.0 0.0000E+00 2.9250E+03
       187      930.0 0.0000E+00 2.9250E+03
       188      935.0 0.0000E+00 2.9250E+03
       189      940.0 0.0000E+00 2.9250E+03
       190      945.0 0.0000E+00 2.9250E+03
       191      950.0 0.0000E+00 2.9250E+03
       192      955.0 0.0000E+00 2.9250E+03
       193      960.0 1.4580E+02 3.6540E+03
       194      965.0 0.0000E+00 3.6540E+03
       195      970.0 0.0000E+00 3.6540E+03
       196      975.0 0.0000E+00 3.6540E+03
       197      980.0 0.0000E+00 3.6540E+03
       198      985.0 0.0000E+00 3.6540E+03
       199      990.0 0.0000E+00 3.6540E+03
       200      995.0 0.0000E+00 3.6540E+03
       201     1000.0 0.0000E+00 3.6540E+03
       202     1005.0 0.0000E+00 3.6540E+03
       203     1010.0 0.0000E+00 3.6540E+03
       204     1015.0 0.0000E+00 3.6540E+03
       205     1020.0 0.0000E+00 3.6540E+03
       206     1025.0 0.0000E+00 3.6540E+03
       207     1030.0 0.0000E+00 3.6540E+03
       208     1035.0 0.0000E+00 3.6540E+03
       209     1040.0 0.0000E+00 3.6540E+03
       210     1045.0 0.0000E+00 3.6540E+03
       211     1050.0 0.0000E+00 3.6540E+03
       212     1055.0 0.0000E+00 3.6540E+03
       213     1060.0 0.0000E+00 3.6540E+03
       214     1065.0 0.0000E+00 3.6540E+03
       215     1070.0 0.0000E+00 3.6540E+03
       216     1075.0 0.0000E+00 3.6540E+03
       217     1080.0 0.0000E+00 3.6540E+03
       218     1085.0 0.0000E+00 3.6540E+03
       219     1090.0 0.0000E+00 3.6540E+03
       220     1095.0 0.0000E+00 3.6540E+03
       221     1100.0 0.0000E+00 3.6540E+03
       222     1105.0 1.6820E+02 4.4950E+03
       223     1110.0 0.0000E+00 4.4950E+03
       224     1115.0 0.0000E+00 4.4950E+03
       225     1120.0 0.0000E+00 4.4950E+03
       226     1125.0 0.0000E+00 4.4950E+03
       227     1130.0 0.0000E+00 4.4950E+03
       228     1135.0 0.0000E+00 4.4950E+03
       229     1140.0 0.0000E+00 4.4950E+03
       230     1145.0 0.0000E+00 4.4950E+03
       231     1150.0 0.0000E+00 4.4950E+03
       232     1155.0 0.0000E+00 4.4950E+03
       233     1160.0 0.0000E+00 4.4950E+03
       234     1165.0 0.0000E+00 4.4950E+03
       235     1170.0 0.0000E+00 4.4950E+03
       236     1175.0 0.0000E+00 4.4950E+03
       237     1180.0 0.0000E+00 4.4950E+03
       238     1185.0 0.0000E+00 4.4950E+03
       239     1190.0 0.0000E+00 4.4950E+03
       240     1195.0 0.0000E+00 4.4950E+03
       241     1200.0 0.0000E+00 4.4950E+03
       242     1205.0 0.0000E+00 4.4950E+03
       243     1210.0 0.0000E+00 4.4950E+03
       244     1215.0 0.0000E+00 4.4950E+03
       245     1220.0 0.0000E+00 4.4950E+03
       246     1225.0 0.0000E+00 4.4950E+03
       247     1230.0 0.0000E+00 4.4950E+03
       248     1235.0 0.0000E+00 4.4950E+03
       249     1240.0 0.0000E+00 4.4950E+03
       250     1245.0 0.0000E+00 4.4950E+03
       251     1250.0 0.0000E+00 4.4950E+03
       252     1255.0 0.0000E+00 4.4950E+03
       253     1260.0 0.0000E+00 4.4950E+03
       254     1265.0 1.9220E+02 5.4560E+03
       255     1270.0 0.0000E+00 5.4560E+03
       256     1275.0 0.0000E+00 5.4560E+03
       257     1280.0 0.0000E+00 5.4560E+03
       258     1285.0 0.0000E+00 5.4560E+03
       259     1290.0 0.0000E+00 5.4560E+03
       260     1295.0 0.0000E+00 5.4560E+03
       261     1300.0 0.0000E+00 5.4560E+03
       262     1305.0 0.0000E+00 5.4560E+03
       263     1310.0 0.0000E+00 5.4560E+03
       264     1315.0 0.0000E+00 5.4560E+03
       265     1320.0 6.0000E-01 5.4590E+03
       266     1325.0 0.0000E+00 5.4590E+03
       267     1330.0 5.4000E+00 5.4860E+03
       268     1335.0 0.0000E+00 5.4860E+03
       269     1340.0 0.0000E+00 5.4860E+03
       270     1345.0 0.0000E+00 5.4860E+03
       271     1350.0 1.5000E+01 5.5610E+03
       272     1355.0 0.0000E+00 5.5610E+03
       273     1360.0 0.0000E+00 5.5610E+03
       274     1365.0 0.0000E+00 5.5610E+03
       275     1370.0 0.0000E+00 5.5610E+03
       276     1375.0 0.0000E+00 5.5610E+03
       277     1380.0 0.0000E+00 5.5610E+03
       278     1385.0 2.9400E+01 5.7080E+03
       279     1390.0 0.0000E+00 5.7080E+03
       280     1395.0 0.0000E+00 5.7080E+03
       281     1400.0 0.0000E+00 5.7080E+03
       282     1405.0 0.0000E+00 5.7080E+03
       283     1410.0 0.0000E+00 5.7080E+03
       284     1415.0 0.0000E+00 5.7080E+03
       285     1420.0 0.0000E+00 5.7080E+03
       286     1425.0 4.8600E+01 5.9510E+03
       287     1430.0 0.0000E+00 5.9510E+03
       288     1435.0 2.1780E+02 7.0400E+03
       289     1440.0 0.0000E+00 7.0400E+03
       290     1445.0 0.0000E+00 7.0400E+03
       291     1450.0 0.0000E+00 7.0400E+03
       292     1455.0 0.0000E+00 7.0400E+03
       293     1460.0 0.0000E+00 7.0400E+03
       294     1465.0 0.0000E+00 7.0400E+03
       295     1470.0 0.0000E+00 7.0400E+03
       296     1475.0 0.0000E+00 7.0400E+03
       297     1480.0 7.2600E+01 7.4030E+03
       298     1485.0 0.0000E+00 7.4030E+03
       299     1490.0 0.0000E+00 7.4030E+03
       300     1495.0 0.0000E+00 7.4030E+03
       301     1500.0 0.0000E+00 7.4030E+03
       302     1505.0 0.0000E+00 7.4030E+03
       303     1510.0 0.0000E+00 7.4030E+03
       304     1515.0 0.0000E+00 7.4030E+03
       305     1520.0 0.0000E+00 7.4030E+03
       306     1525.0 0.0000E+00 7.4030E+03
       307     1530.0 0.0000E+00 7.4030E+03
       308     1535.0 0.0000E+00 7.4030E+03
       309     1540.0 1.0160E+02 7.9110E+03
       310     1545.0 0.0000E+00 7.9110E+03
       311     1550.0 1.8000E+00 7.9200E+03
       312     1555.0 0.0000E+00 7.9200E+03
       313     1560.0 0.0000E+00 7.9200E+03
       314     1565.0 0.0000E+00 7.9200E+03
       315     1570.0 5.0000E+00 7.9450E+03
       316     1575.0 0.0000E+00 7.9450E+03
       317     1580.0 2.0000E-01 7.9460E+03
       318     1585.0 0.0000E+00 7.9460E+03
       319     1590.0 1.8000E+00 7.9550E+03
       320     1595.0 0.0000E+00 7.9550E+03
       321     1600.0 0.0000E+00 7.9550E+03
       322     1605.0 9.8000E+00 8.0040E+03
       323     1610.0 2.5000E+02 9.2540E+03
       324     1615.0 1.3500E+02 9.9290E+03
       325     1620.0 0.0000E+00 9.9290E+03
       326     1625.0 0.0000E+00 9.9290E+03
       327     1630.0 0.0000E+00 9.9290E+03
       328     1635.0 0.0000E+00 9.9290E+03
       329     1640.0 0.0000E+00 9.9290E+03
       330     1645.0 2.6000E+01 1.0059E+04
       331     1650.0 0.0000E+00 1.0059E+04
       332     1655.0 0.0000E+00 1.0059E+04
       333     1660.0 0.0000E+00 1.0059E+04
       334     1665.0 0.0000E+00 1.0059E+04
       335     1670.0 0.0000E+00 1.0059E+04
       336     1675.0 0.0000E+00 1.0059E+04
       337     1680.0 0.0000E+00 1.0059E+04
       338     1685.0 1.6200E+01 1.0140E+04
       339     1690.0 0.0000E+00 1.0140E+04
       340     1695.0 0.0000E+00 1.0140E+04
       341     1700.0 1.9760E+02 1.1128E+04
       342     1705.0 0.0000E+00 1.1128E+04
       343     1710.0 0.0000E+00 1.1128E+04
       344     1715.0 0.0000E+00 1.1128E+04
       345     1720.0 0.0000E+00 1.1128E+04
       346     1725.0 0.0000E+00 1.1128E+04
       347     1730.0 0.0000E+00 1.1128E+04
       348     1735.0 0.0000E+00 1.1128E+04
       349     1740.0 2.4200E+01 1.1249E+04
       350     1745.0 0.0000E+00 1.1249E+04
       351     1750.0 0.0000E+00 1.1249E+04
       352     1755.0 0.0000E+00 1.1249E+04
       353     1760.0 3.3800E+01 1.1418E+04
       354     1765.0 0.0000E+00 1.1418E+04
       355     1770.0 0.0000E+00 1.1418E+04
       356     1775.0 0.0000E+00 1.1418E+04
       357     1780.0 0.0000E+00 1.1418E+04
       358     1785.0 0.0000E+00 1.1418E+04
       359     1790.0 0.0000E+00 1.1418E+04
       360     1795.0 2.1660E+02 1.2501E+04
       361     1800.0 3.0760E+02 1.4039E+04
       362     1805.0 0.0000E+00 1.4039E+04
       363     1810.0 0.0000E+00 1.4039E+04
       364     1815.0 0.0000E+00 1.4039E+04
       365     1820.0 0.0000E+00 1.4039E+04
       366     1825.0 0.0000E+00 1.4039E+04
       367     1830.0 0.0000E+00 1.4039E+04
       368     1835.0 4.5000E+01 1.4264E+04
       369     1840.0 0.0000E+00 1.4264E+04
       370     1845.0 0.0000E+00 1.4264E+04
       371     1850.0 0.0000E+00 1.4264E+04
       372     1855.0 0.0000E+00 1.4264E+04
       373     1860.0 0.0000E+00 1.4264E+04
       374     1865.0 0.0000E+00 1.4264E+04
       375     1870.0 0.0000E+00 1.4264E+04
       376     1875.0 4.5000E+01 1.4489E+04
       377     1880.0 0.0000E+00 1.4489E+04
       378     1885.0 0.0000E+00 1.4489E+04
       379     1890.0 0.0000E+00 1.4489E+04
       380     1895.0 0.0000E+00 1.4489E+04
       381     1900.0 2.6460E+02 1.5812E+04
       382     1905.0 0.0000E+00 1.5812E+04
       383     1910.0 0.0000E+00 1.5812E+04
       384     1915.0 0.0000E+00 1.5812E+04
       385     1920.0 5.7800E+01 1.6101E+04
       386     1925.0 0.0000E+00 1.6101E+04
       387     1930.0 0.0000E+00 1.6101E+04
       388     1935.0 0.0000E+00 1.6101E+04
       389     1940.0 0.0000E+00 1.6101E+04
       390     1945.0 0.0000E+00 1.6101E+04
       391     1950.0 0.0000E+00 1.6101E+04
       392     1955.0 0.0000E+00 1.6101E+04
       393     1960.0 5.7800E+01 1.6390E+04
       394     1965.0 0.0000E+00 1.6390E+04
       395     1970.0 0.0000E+00 1.6390E+04
       396     1975.0 0.0000E+00 1.6390E+04
       397     1980.0 0.0000E+00 1.6390E+04
       398     1985.0 0.0000E+00 1.6390E+04
       399     1990.0 0.0000E+00 1.6390E+04
       400     1995.0 0.0000E+00 1.6390E+04
       401     2000.0 3.0420E+02 1.7911E+04
       402     2005.0 0.0000E+00 1.7911E+04
       403     2010.0 0.0000E+00 1.7911E+04
       404     2015.0 3.8960E+02 1.9859E+04
       405     2020.0 0.0000E+00 1.9859E+04
       406     2025.0 0.0000E+00 1.9859E+04
       407     2030.0 0.0000E+00 1.9859E+04
       408     2035.0 0.0000E+00 1.9859E+04
       409     2040.0 0.0000E+00 1.9859E+04
       410     2045.0 0.0000E+00 1.9859E+04
       411     2050.0 0.0000E+00 1.9859E+04
       412     2055.0 7.2200E+01 2.0220E+04
       413     2060.0 0.0000E+00 2.0220E+04
       414     2065.0 0.0000E+00 2.0220E+04
       415     2070.0 0.0000E+00 2.0220E+04
       416     2075.0 0.0000E+00 2.0220E+04
       417     2080.0 0.0000E+00 2.0220E+04
       418     2085.0 0.0000E+00 2.0220E+04
       419     2090.0 0.0000E+00 2.0220E+04
       420     2095.0 0.0000E+00 2.0220E+04
       421     2100.0 0.0000E+00 2.0220E+04
       422     2105.0 0.0000E+00 2.0220E+04
       423     2110.0 0.0000E+00 2.0220E+04
       424     2115.0 0.0000E+00 2.0220E+04
       425     2120.0 8.8200E+01 2.0661E+04
       426     2125.0 0.0000E+00 2.0661E+04
       427     2130.0 0.0000E+00 2.0661E+04
       428     2135.0 0.0000E+00 2.0661E+04
       429     2140.0 3.7500E+02 2.2536E+04
       430     2145.0 0.0000E+00 2.2536E+04
       431     2150.0 0.0000E+00 2.2536E+04
       432     2155.0 0.0000E+00 2.2536E+04
       433     2160.0 8.8200E+01 2.2977E+04
       434     2165.0 0.0000E+00 2.2977E+04
       435     2170.0 0.0000E+00 2.2977E+04
       436     2175.0 0.0000E+00 2.2977E+04
       437     2180.0 0.0000E+00 2.2977E+04
       438     2185.0 0.0000E+00 2.2977E+04
       439     2190.0 0.0000E+00 2.2977E+04
       440     2195.0 0.0000E+00 2.2977E+04
       441     2200.0 0.0000E+00 2.2977E+04
       442     2205.0 0.0000E+00 2.2977E+04
       443     2210.0 0.0000E+00 2.2977E+04
       444     2215.0 3.3620E+02 2.4658E+04
       445     2220.0 0.0000E+00 2.4658E+04
       446     2225.0 0.0000E+00 2.4658E+04
       447     2230.0 0.0000E+00 2.4658E+04
       448     2235.0 1.0580E+02 2.5187E+04
       449     2240.0 0.0000E+00 2.5187E+04
       450     2245.0 0.0000E+00 2.5187E+04
       451     2250.0 0.0000E+00 2.5187E+04
       452     2255.0 0.0000E+00 2.5187E+04
       453     2260.0 0.0000E+00 2.5187E+04
       454     2265.0 0.0000E+00 2.5187E+04
       455     2270.0 0.0000E+00 2.5187E+04
       456     2275.0 1.0580E+02 2.5716E+04
       457     2280.0 4.3740E+02 2.7903E+04
       458     2285.0 0.0000E+00 2.7903E+04
       459     2290.0 0.0000E+00 2.7903E+04
       460     2295.0 0.0000E+00 2.7903E+04
       461     2300.0 0.0000E+00 2.7903E+04
       462     2305.0 0.0000E+00 2.7903E+04
       463     2310.0 0.0000E+00 2.7903E+04
       464     2315.0 0.0000E+00 2.7903E+04
       465     2320.0 0.0000E+00 2.7903E+04
       466     2325.0 0.0000E+00 2.7903E+04
       467     2330.0 0.0000E+00 2.7903E+04
       468     2335.0 0.0000E+00 2.7903E+04
       469     2340.0 0.0000E+00 2.7903E+04
       470     2345.0 0.0000E+00 2.7903E+04
       471     2350.0 0.0000E+00 2.7903E+04
       472     2355.0 0.0000E+00 2.7903E+04
       473     2360.0 1.2500E+02 2.8528E+04
       474     2365.0 0.0000E+00 2.8528E+04
       475     2370.0 0.0000E+00 2.8528E+04
       476     2375.0 0.0000E+00 2.8528E+04
       477     2380.0 0.0000E+00 2.8528E+04
       478     2385.0 0.0000E+00 2.8528E+04
       479     2390.0 0.0000E+00 2.8528E+04
       480     2395.0 0.0000E+00 2.8528E+04
       481     2400.0 1.2500E+02 2.9153E+04
       482     2405.0 0.0000E+00 2.9153E+04
       483     2410.0 0.0000E+00 2.9153E+04
       484     2415.0 0.0000E+00 2.9153E+04
       485     2420.0 0.0000E+00 2.9153E+04
       486     2425.0 5.0460E+02 3.1676E+04
       487     2430.0 0.0000E+00 3.1676E+04
       488     2435.0 3.6980E+02 3.3525E+04
       489     2440.0 0.0000E+00 3.3525E+04
       490     2445.0 0.0000E+00 3.3525E+04
       491     2450.0 0.0000E+00 3.3525E+04
       492     2455.0 0.0000E+00 3.3525E+04
       493     2460.0 0.0000E+00 3.3525E+04
       494     2465.0 0.0000E+00 3.3525E+04
       495     2470.0 0.0000E+00 3.3525E+04
       496     2475.0 0.0000E+00 3.3525E+04
       497     2480.0 0.0000E+00 3.3525E+04
       498     2485.0 0.0000E+00 3.3525E+04
       499     2490.0 0.0000E+00 3.3525E+04
       500     2495.0 0.0000E+00 3.3525E+04
       501     2500.0 1.4580E+02 3.4254E+04
       502        0.0 2.0000E-01 1.0000E+00
       503      100.0 0.0000E+00 8.4000E+01
       504      200.0 0.0000E+00 2.8600E+02
       505      300.0 0.0000E+00 6.8000E+02
       506      400.0 0.0000E+00 9.6900E+02
       507      500.0 0.0000E+00 1.3300E+03
       508      600.0 0.0000E+00 1.7710E+03
       509      700.0 0.0000E+00 2.3000E+03
       510      800.0 0.0000E+00 2.3000E+03
       511      900.0 0.0000E+00 2.9250E+03
       512     1000.0 0.0000E+00 3.6540E+03
       513     1100.0 0.0000E+00 3.6540E+03
       514     1200.0 0.0000E+00 4.4950E+03
       515     1300.0 0.0000E+00 5.4560E+03
       516     1400.0 0.0000E+00 5.7080E+03
       517     1500.0 0.0000E+00 7.4030E+03
       518     1600.0 0.0000E+00 7.9550E+03
       519     1700.0 1.9760E+02 1.1128E+04
       520     1800.0 3.0760E+02 1.4039E+04
       521     1900.0 2.6460E+02 1.5812E+04
       522     2000.0 3.0420E+02 1.7911E+04
       523     2100.0 0.0000E+00 2.0220E+04
       524     2200.0 0.0000E+00 2.2977E+04
       525     2300.0 0.0000E+00 2.7903E+04
       526     2400.0 1.2500E+02 2.9153E+04
       527     2500.0 1.4580E+02 3.4254E+04
       528     2600.0 0.0000E+00 3.7866E+04
       529     2700.0 2.9400E+01 4.2028E+04
       530     2800.0 0.0000E+00 4.6435E+04
       531     2900.0 3.8000E+00 4.9618E+04
       532     3000.0 0.0000E+00 5.8808E+04
       533     3100.0 0.0000E+00 6.3409E+04
       534     3200.0 4.5000E+01 7.7664E+04
       535     3300.0 3.3800E+01 8.3462E+04
       536     3400.0 0.0000E+00 9.8690E+04
       537     3500.0 5.7800E+01 1.1024E+05
       538     3600.0 1.0580E+02 1.2801E+05
       539     3700.0 6.5000E+02 1.3466E+05
       540     3800.0 0.0000E+00 1.5367E+05
       541     3900.0 7.0160E+02 1.6714E+05
       542     4000.0 2.9400E+01 1.8729E+05
       543     4100.0 4.8400E+01 2.0071E+05
       544     4200.0 3.6000E+00 2.1379E+05
       545     4300.0 1.1560E+02 2.4743E+05
       546     4400.0 3.3800E+01 2.6090E+05
       547     4500.0 6.9880E+02 3.0094E+05
       548     4600.0 2.0000E+01 3.2318E+05
       549     4700.0 1.2166E+03 3.6645E+05
       550     4800.0 1.7040E+02 4.0153E+05
       551     4900.0 2.0746E+03 4.4875E+05
       552     5000.0 1.2500E+02 4.7302E+05
       553     5100.0 0.0000E+00 5.3351E+05
       554     5200.0 5.7660E+02 5.7360E+05
       555     5300.0 1.4802E+03 6.3521E+05
       556     5400.0 4.8400E+01 6.8554E+05
       557     5500.0 5.7620E+02 7.2836E+05
       558     5600.0 2.3948E+03 8.2496E+05
       559     5700.0 2.7560E+02 8.6610E+05
       560     5800.0 1.9708E+03 9.5319E+05
       561     5900.0 4.3440E+02 1.0171E+06
       562     6000.0 8.8840E+02 1.1200E+06
       563     6100.0 7.7000E+02 1.2252E+06
       564     6200.0 6.5980E+02 1.3297E+06
       565     6300.0 4.3780E+02 1.4316E+06
       566     6400.0 6.0540E+02 1.5769E+06
       567     6500.0 7.3740E+02 1.6941E+06
       568     6600.0 3.7424E+03 1.8443E+06
       569     6700.0 3.4000E+02 1.9875E+06
       570     6800.0 6.3360E+02 2.1088E+06
       571     6900.0 7.9880E+02 2.3305E+06
       572     7000.0 1.4000E+03 2.4651E+06
       573     7100.0 3.0458E+03 2.6561E+06
       574     7200.0 1.5374E+03 2.8399E+06
       575     7300.0 1.5068E+03 3.0823E+06
       576     7400.0 2.1982E+03 3.3198E+06
       577     7500.0 3.0348E+03 3.5826E+06
       578     7600.0 2.6308E+03 3.8387E+06
       579     7700.0 3.1668E+03 4.1479E+06
       580     7800.0 3.4824E+03 4.4421E+06
       581     7900.0 5.1874E+03 4.7808E+06
       582     8000.0 2.1256E+03 5.1364E+06
       583     8100.0 1.7404E+03 5.4471E+06
       584     8200.0 9.7498E+03 5.9310E+06
       585     8300.0 3.6656E+03 6.2656E+06
       586     8400.0 5.8678E+03 6.6939E+06
       587     8500.0 3.8080E+03 7.1315E+06
       588     8600.0 7.9498E+03 7.6584E+06
       589     8700.0 4.1134E+03 8.1822E+06
       590     8800.0 8.9272E+03 8.7448E+06
       591     8900.0 8.0988E+03 9.2848E+06
       592     9000.0 4.7060E+03 9.9748E+06
       593     9100.0 3.7398E+03 1.0604E+07
       594     9200.0 5.9666E+03 1.1374E+07
       595     9300.0 4.8430E+03 1.2149E+07
       596     9400.0 3.5874E+03 1.2854E+07
       597     9500.0 1.2050E+04 1.3772E+07
       598     9600.0 1.2313E+04 1.4628E+07
       599     9700.0 9.7796E+03 1.5538E+07
       600     9800.0 1.0456E+04 1.6457E+07
       601     9900.0 1.2093E+04 1.7538E+07
       602    10000.0 8.4738E+03 1.8636E+07
       603    10100.0 1.4749E+04 1.9777E+07
       604    10200.0 1.8273E+04 2.0971E+07
       605    10300.0 1.4813E+04 2.2310E+07
       606    10400.0 8.1416E+03 2.3595E+07
       607    10500.0 1.2903E+04 2.5170E+07
       608    10600.0 1.0837E+04 2.6713E+07
       609    10700.0 1.8569E+04 2.8239E+07
       610    10800.0 2.3518E+04 2.9994E+07
       611    10900.0 1.4833E+04 3.1804E+07
       612    11000.0 1.7432E+04 3.3626E+07
       613    11100.0 2.0939E+04 3.5564E+07
       614    11200.0 2.3288E+04 3.7651E+07
       615    11300.0 3.0613E+04 3.9827E+07
       616    11400.0 2.2427E+04 4.1999E+07
       617    11500.0 2.9448E+04 4.4426E+07
       618    11600.0 2.5125E+04 4.6973E+07
       619    11700.0 2.6028E+04 4.9425E+07
       620    11800.0 2.5793E+04 5.2536E+07
       621    11900.0 2.8218E+04 5.5461E+07
       622    12000.0 2.6453E+04 5.8370E+07
       623    12100.0 3.9982E+04 6.1764E+07
       624    12200.0 2.8170E+04 6.5264E+07
       625    12300.0 2.8444E+04 6.8736E+07
       626    12400.0 3.3708E+04 7.2409E+07
       627    12500.0 3.8615E+04 7.6411E+07
       628    12600.0 3.9932E+04 8.0547E+07
       629    12700.0 5.3464E+04 8.4668E+07
       630    12800.0 5.1848E+04 8.9233E+07
       631    12900.0 4.2939E+04 9.3904E+07
       632    13000.0 4.8694E+04 9.8649E+07
       633    13100.0 5.5613E+04 1.0424E+08
       634    13200.0 6.2563E+04 1.0962E+08
       635    13300.0 6.1044E+04 1.1510E+08
       636    13400.0 6.0804E+04 1.2115E+08
       637    13500.0 5.8826E+04 1.2765E+08
       638    13600.0 6.1565E+04 1.3401E+08
       639    13700.0 5.9594E+04 1.4071E+08
       640    13800.0 6.6767E+04 1.4798E+08
       641    13900.0 6.2388E+04 1.5540E+08
       642    14000.0 6.6964E+04 1.6306E+08
       643    14100.0 8.5701E+04 1.7112E+08
       644    14200.0 8.2243E+04 1.7960E+08
       645    14300.0 9.1061E+04 1.8819E+08
       646    14400.0 7.9514E+04 1.9789E+08
       647    14500.0 9.8949E+04 2.0746E+08
       648    14600.0 1.0144E+05 2.1731E+08
       649    14700.0 1.1797E+05 2.2804E+08
       650    14800.0 9.0564E+04 2.3927E+08
       651    14900.0 1.1061E+05 2.5050E+08
       652    15000.0 1.3137E+05 2.6241E+08
       653    15100.0 1.4087E+05 2.7528E+08
       654    15200.0 1.2681E+05 2.8797E+08
       655    15300.0 1.3163E+05 3.0152E+08
       656    15400.0 1.3989E+05 3.1580E+08
       657    15500.0 1.3186E+05 3.3023E+08
       658    15600.0 1.8373E+05 3.4556E+08
       659    15700.0 1.5311E+05 3.6189E+08
       660    15800.0 1.8077E+05 3.7827E+08
       661    15900.0 1.8330E+05 3.9542E+08
       662    16000.0 1.7407E+05 4.1371E+08
       663    16100.0 1.9564E+05 4.3295E+08
       664    16200.0 1.9573E+05 4.5187E+08
       665    16300.0 2.1783E+05 4.7227E+08
       666    16400.0 2.1806E+05 4.9416E+08
       667    16500.0 2.3699E+05 5.1556E+08
       668    16600.0 2.3754E+05 5.3863E+08
       669    16700.0 2.2208E+05 5.6260E+08
       670    16800.0 2.3540E+05 5.8701E+08
       671    16900.0 2.8130E+05 6.1317E+08
       672    17000.0 2.8053E+05 6.4034E+08
       673    17100.0 2.9950E+05 6.6737E+08
       674    17200.0 2.9084E+05 6.9645E+08
       675    17300.0 3.3299E+05 7.2677E+08
       676    17400.0 3.1851E+05 7.5832E+08
       677    17500.0 3.3351E+05 7.9000E+08
       678    17600.0 3.5477E+05 8.2445E+08
       679    17700.0 3.0470E+05 8.5938E+08
       680    17800.0 3.3888E+05 8.9559E+08
       681    17900.0 3.8738E+05 9.3332E+08
       682    18000.0 3.8594E+05 9.7263E+08
       683    18100.0 4.1478E+05 1.0128E+09
       684    18200.0 4.2698E+05 1.0557E+09
       685    18300.0 4.3088E+05 1.0995E+09
       686    18400.0 4.5340E+05 1.1440E+09
       687    18500.0 4.8197E+05 1.1916E+09
       688    18600.0 4.6725E+05 1.2408E+09
       689    18700.0 5.2341E+05 1.2915E+09
       690    18800.0 5.7149E+05 1.3432E+09
       691    18900.0 5.4727E+05 1.3990E+09
       692    19000.0 5.3195E+05 1.4546E+09
       693    19100.0 6.3176E+05 1.5134E+09
       694    19200.0 6.5822E+05 1.5738E+09
       695    19300.0 6.3037E+05 1.6368E+09
       696    19400.0 6.8080E+05 1.7014E+09
       697    19500.0 7.1412E+05 1.7695E+09
       698    19600.0 6.7590E+05 1.8387E+09
       699    19700.0 7.5168E+05 1.9100E+09
       700    19800.0 7.1144E+05 1.9856E+09
       701    19900.0 7.8538E+05 2.0638E+09
       702    20000.0 8.1393E+05 2.1434E+09
       703    20100.0 8.9938E+05 2.2264E+09
       704    20200.0 8.5896E+05 2.3136E+09
       705    20300.0 8.9738E+05 2.4019E+09
       706    20400.0 9.0246E+05 2.4945E+09
       707    20500.0 9.9846E+05 2.5897E+09
       708    20600.0 9.7190E+05 2.6879E+09
       709    20700.0 1.0108E+06 2.7899E+09
       710    20800.0 1.0833E+06 2.8955E+09
       711    20900.0 1.1478E+06 3.0036E+09
       712    21000.0 1.2131E+06 3.1156E+09
       713    21100.0 1.1721E+06 3.2330E+09
       714    21200.0 1.1561E+06 3.3534E+09
       715    21300.0 1.2604E+06 3.4777E+09
       716    21400.0 1.4142E+06 3.6071E+09
       717    21500.0 1.3122E+06 3.7407E+09
       718    21600.0 1.3847E+06 3.8776E+09
       719    21700.0 1.4259E+06 4.0201E+09
       720    21800.0 1.5157E+06 4.1663E+09
       721    21900.0 1.5795E+06 4.3194E+09
       722    22000.0 1.6134E+06 4.4743E+09
       723    22100.0 1.6277E+06 4.6376E+09
       724    22200.0 1.6113E+06 4.8021E+09
       725    22300.0 1.7305E+06 4.9756E+09
       726    22400.0 1.8242E+06 5.1544E+09
       727    22500.0 1.9049E+06 5.3367E+09
       728    22600.0 1.9757E+06 5.5273E+09
       729    22700.0 2.0140E+06 5.7236E+09
       730    22800.0 2.0924E+06 5.9259E+09
       731    22900.0 2.1069E+06 6.1341E+09
       732    23000.0 2.1998E+06 6.3503E+09
       733    23100.0 2.2778E+06 6.5712E+09
       734    23200.0 2.3841E+06 6.8021E+09
       735    23300.0 2.4228E+06 7.0366E+09
       736    23400.0 2.3668E+06 7.2816E+09
       737    23500.0 2.4678E+06 7.5312E+09
       738    23600.0 2.5665E+06 7.7920E+09
       739    23700.0 2.6164E+06 8.0594E+09
       740    23800.0 2.8180E+06 8.3329E+09
       741    23900.0 2.8593E+06 8.6184E+09
       742    24000.0 2.9434E+06 8.9126E+09
       743    24100.0 3.0559E+06 9.2142E+09
       744    24200.0 3.0812E+06 9.5240E+09
       745    24300.0 3.3249E+06 9.8469E+09
       746    24400.0 3.1885E+06 1.0176E+10
       747    24500.0 3.4300E+06 1.0518E+10
       748    24600.0 3.7095E+06 1.0869E+10
       749    24700.0 3.6343E+06 1.1229E+10
       750    24800.0 3.6805E+06 1.1602E+10
       751    24900.0 3.9520E+06 1.1987E+10
       752    25000.0 3.9448E+06 1.2380E+10
