**************INPUT DATA SUMMARY**************
%%%%%%%%%%%%%%%%%%%%%%%%%%%%%%%%%%%%%%%%%%%%%%%%%%%%%%%%%%%%%%%%%%%%%%%%%%%%%%

                                        John R. Barker
                DenSum-2022             University of Michigan
                                        Ann Arbor, MI 48109-2143
                Jan 2022                jrbarker@umich.edu
                                        (734) 763 6239

              http://clasp-research.engin.umich.edu/multiwell/

%%%%%%%%%%%%%%%%%%%%%%%%%%%%%%%%%%%%%%%%%%%%%%%%%%%%%%%%%%%%%%%%%%%%%%%%%%%%%%

        Suggested Literature Citations:

    a) J.R. Barker, T.L. Nguyen, J.F. Stanton, C. Aieta, M. Ceotto,
       F. Gabas, T.J.D. Kumar, C.G.L.Li, L.L.Lohr, A. Maranzana,
       N.F. Ortiz, J.M. Preses, J.M. Simmie, J.A. Sonk, and P.J. Stimac; 
       MultiWell-2022    Software Suite; University of Michigan, 
       Ann Arbor, Michigan, USA, Jan 2022; 
       http://clasp-research.engin.umich.edu/multiwell/.

    b) J.R. Barker, Int. J. Chem. Kinetics, 33, 232-45 (2001)

%%%%%%%%%%%%%%%%%%%%%%%%%%%%%%%%%%%%%%%%%%%%%%%%%%%%%%%%%%%%%%%%%%%%%%%%%%%%%%


....................................................
          2022/07/01   08:36:08.546   (Local Time)
          year/mm/dd   hr:mi:second
                 CPU :        0.005 s (  0.000 hr)
....................................................


Degrees of Freedom

  1  Vibrator: Fund=  3416.90  Harm=  3598.70  Anh(cm-1)=  -90.90  g=  1
  2  Vibrator: Fund=  1367.50  Harm=  1387.50  Anh(cm-1)=  -10.00  g=  1
  3  Vibrator: Fund=   855.00  Harm=   875.00  Anh(cm-1)=  -10.00  g=  1
  4  General Hind.Rot:  Vhr_Type = VHRD2; Bhr/Ihr_Type = BHRD1
     Vhr:  Symm. =  1  Phase (rad.) =  0.0000  Coeff. (cm-1) =   645.1000  1036.9700   657.5300    50.8900     2.5240
     Bhr:  Symm. =  1  Phase (rad.) =  0.0000  Coeff. (cm-1) =    39.3754
  5  Vibrator: Fund=  3430.30  Harm=  3610.70  Anh(cm-1)=  -90.20  g=  1
  6  Vibrator: Fund=  1260.00  Harm=  1266.00  Anh(cm-1)=   -3.00  g=  1
  7  Symm-Top  2D-Moment =   19.70 amua, B2 =  0.8556 cm-1  ;  1D-Moment =    1.67 amua, B1 = 10.0697 cm-1  ;  Symm. No. = 1
  8  Quan.Rot  AmuAng^2 =   16.86  Symm =  1.   dim = 1  B =  1.0000 cm-1
  9  Vibrator: Fund=  1002.00  Harm=  1000.00  Anh(cm-1)=    1.00  g=  1
 10  P-in-Box  Freq(0-1)=    3.00  Freq.Param.=    1.00  g = 1
**************INPUT DATA SUMMARY**************
 H2O2
H2O2 [Dorofeeva et al. J. Phys. Chem. Ref. Data 32
        5.0       3000    80000.0       4000        1.0
       No.    E-Emin     Density     Sum   [Emin =    0.0 cm-1; E at TOP of energy grains]
         1        0.0  3.00000E+00  1.50000E+01
         2        5.0  8.00000E+00  5.50000E+01
         3       10.0  2.28000E+01  1.69000E+02
         4       15.0  4.84000E+01  4.11000E+02
         5       20.0  8.04000E+01  8.13000E+02
         6       25.0  1.36800E+02  1.49700E+03
         7       30.0  1.74000E+02  2.36700E+03
         8       35.0  2.44400E+02  3.58900E+03
         9       40.0  2.90200E+02  5.04000E+03
        10       45.0  3.49200E+02  6.78600E+03
        11       50.0  4.41800E+02  8.99500E+03
        12       55.0  4.76800E+02  1.13790E+04
        13       60.0  6.21600E+02  1.44870E+04
        14       65.0  6.34800E+02  1.76610E+04
        15       70.0  7.79200E+02  2.15570E+04
        16       75.0  8.31000E+02  2.57120E+04
        17       80.0  9.08000E+02  3.02520E+04
        18       85.0  1.05960E+03  3.55500E+04
        19       90.0  1.06640E+03  4.08820E+04
        20       95.0  1.24120E+03  4.70880E+04
        21      100.0  1.27840E+03  5.34800E+04
        22      105.0  1.40120E+03  6.04860E+04
        23      110.0  1.52820E+03  6.81270E+04
        24      115.0  1.61060E+03  7.61800E+04
        25      120.0  1.79900E+03  8.51750E+04
        26      125.0  1.91780E+03  9.47640E+04
        27      130.0  2.00020E+03  1.04765E+05
        28      135.0  2.29480E+03  1.16239E+05
        29      140.0  2.16800E+03  1.27079E+05
        30      145.0  2.51100E+03  1.39634E+05
        31      150.0  2.45760E+03  1.51922E+05
        32      155.0  2.66200E+03  1.65232E+05
        33      160.0  2.78220E+03  1.79143E+05
        34      165.0  2.86040E+03  1.93445E+05
        35      170.0  3.16680E+03  2.09279E+05
        36      175.0  3.03980E+03  2.24478E+05
        37      180.0  3.54780E+03  2.42217E+05
        38      185.0  3.40840E+03  2.59259E+05
        39      190.0  3.70680E+03  2.77793E+05
        40      195.0  3.81680E+03  2.96877E+05
        41      200.0  4.01280E+03  3.16941E+05
        42      205.0  4.13740E+03  3.37628E+05
        43      210.0  4.32560E+03  3.59256E+05
        44      215.0  4.47620E+03  3.81637E+05
        45      220.0  4.69540E+03  4.05114E+05
        46      225.0  4.68000E+03  4.28514E+05
        47      230.0  5.26560E+03  4.54842E+05
        48      235.0  4.90280E+03  4.79356E+05
        49      240.0  5.34860E+03  5.06099E+05
        50      245.0  5.52220E+03  5.33710E+05
        51      250.0  5.53160E+03  5.61368E+05
        52      255.0  6.06680E+03  5.91702E+05
        53      260.0  5.71680E+03  6.20286E+05
        54      265.0  6.49620E+03  6.52767E+05
        55      270.0  5.84100E+03  6.81972E+05
        56      275.0  7.03540E+03  7.17149E+05
        57      280.0  6.76480E+03  7.50973E+05
        58      285.0  6.94020E+03  7.85674E+05
        59      290.0  7.50640E+03  8.23206E+05
        60      295.0  7.19480E+03  8.59180E+05
        61      300.0  7.77860E+03  8.98073E+05
        62      305.0  8.06860E+03  9.38416E+05
        63      310.0  7.98980E+03  9.78365E+05
        64      315.0  8.79620E+03  1.02235E+06
        65      320.0  8.39460E+03  1.06432E+06
        66      325.0  9.14020E+03  1.11002E+06
        67      330.0  9.25480E+03  1.15629E+06
        68      335.0  8.76100E+03  1.20010E+06
        69      340.0  1.03818E+04  1.25201E+06
        70      345.0  9.27780E+03  1.29840E+06
        71      350.0  1.06890E+04  1.35184E+06
        72      355.0  1.00622E+04  1.40215E+06
        73      360.0  1.06278E+04  1.45529E+06
        74      365.0  1.07032E+04  1.50881E+06
        75      370.0  1.12242E+04  1.56493E+06
        76      375.0  1.17454E+04  1.62366E+06
        77      380.0  1.14196E+04  1.68075E+06
        78      385.0  1.24646E+04  1.74308E+06
        79      390.0  1.21022E+04  1.80359E+06
        80      395.0  1.32800E+04  1.86999E+06
        81      400.0  1.26442E+04  1.93321E+06
        82      405.0  1.33710E+04  2.00006E+06
        83      410.0  1.36926E+04  2.06853E+06
        84      415.0  1.36404E+04  2.13673E+06
        85      420.0  1.51174E+04  2.21232E+06
        86      425.0  1.48230E+04  2.28643E+06
        87      430.0  1.43546E+04  2.35820E+06
        88      435.0  1.61292E+04  2.43885E+06
        89      440.0  1.47962E+04  2.51283E+06
        90      445.0  1.70788E+04  2.59822E+06
        91      450.0  1.64900E+04  2.68068E+06
        92      455.0  1.67934E+04  2.76464E+06
        93      460.0  1.79982E+04  2.85463E+06
        94      465.0  1.63832E+04  2.93655E+06
        95      470.0  1.88366E+04  3.03073E+06
        96      475.0  1.79370E+04  3.12042E+06
        97      480.0  1.84508E+04  3.21267E+06
        98      485.0  1.96480E+04  3.31091E+06
        99      490.0  1.92086E+04  3.40695E+06
       100      495.0  1.99452E+04  3.50668E+06
       101      500.0  2.05058E+04  3.60921E+06
       102      505.0  2.07662E+04  3.71304E+06
       103      510.0  2.12702E+04  3.81939E+06
       104      515.0  2.09312E+04  3.92405E+06
       105      520.0  2.22242E+04  4.03517E+06
       106      525.0  2.15404E+04  4.14287E+06
       107      530.0  2.38402E+04  4.26207E+06
       108      535.0  2.25418E+04  4.37478E+06
       109      540.0  2.48096E+04  4.49883E+06
       110      545.0  2.29692E+04  4.61367E+06
       111      550.0  2.43040E+04  4.73519E+06
       112      555.0  2.55870E+04  4.86313E+06
       113      560.0  2.42950E+04  4.98460E+06
       114      565.0  2.74610E+04  5.12191E+06
       115      570.0  2.59314E+04  5.25157E+06
       116      575.0  2.71406E+04  5.38727E+06
       117      580.0  2.70600E+04  5.52257E+06
       118      585.0  2.71776E+04  5.65846E+06
       119      590.0  2.82092E+04  5.79950E+06
       120      595.0  2.91454E+04  5.94523E+06
       121      600.0  2.86510E+04  6.08848E+06
       122      605.0  3.08464E+04  6.24272E+06
       123      610.0  2.82704E+04  6.38407E+06
       124      615.0  3.23486E+04  6.54581E+06
       125      620.0  3.03304E+04  6.69746E+06
       126      625.0  3.18786E+04  6.85686E+06
       127      630.0  3.19828E+04  7.01677E+06
       128      635.0  3.21496E+04  7.17752E+06
       129      640.0  3.42278E+04  7.34866E+06
       130      645.0  3.35954E+04  7.51664E+06
       131      650.0  3.55288E+04  7.69428E+06
       132      655.0  3.25260E+04  7.85691E+06
       133      660.0  3.58206E+04  8.03601E+06
       134      665.0  3.60712E+04  8.21637E+06
       135      670.0  3.74208E+04  8.40347E+06
       136      675.0  3.78974E+04  8.59296E+06
       137      680.0  3.72752E+04  8.77934E+06
       138      685.0  3.74956E+04  8.96681E+06
       139      690.0  3.82276E+04  9.15795E+06
       140      695.0  3.94548E+04  9.35522E+06
       141      700.0  4.10740E+04  9.56060E+06
       142      705.0  3.94752E+04  9.75797E+06
       143      710.0  4.27440E+04  9.97169E+06
       144      715.0  4.15878E+04  1.01796E+07
       145      720.0  4.15270E+04  1.03873E+07
       146      725.0  4.27750E+04  1.06011E+07
       147      730.0  4.29344E+04  1.08158E+07
       148      735.0  4.48300E+04  1.10400E+07
       149      740.0  4.46696E+04  1.12633E+07
       150      745.0  4.64008E+04  1.14953E+07
       151      750.0  4.48276E+04  1.17195E+07
       152      755.0  4.70264E+04  1.19546E+07
       153      760.0  4.72360E+04  1.21908E+07
       154      765.0  4.79636E+04  1.24306E+07
       155      770.0  4.83314E+04  1.26722E+07
       156      775.0  4.80652E+04  1.29126E+07
       157      780.0  5.11154E+04  1.31681E+07
       158      785.0  5.11112E+04  1.34237E+07
       159      790.0  5.06050E+04  1.36767E+07
       160      795.0  5.20598E+04  1.39370E+07
       161      800.0  5.01630E+04  1.41878E+07
       162      805.0  5.40570E+04  1.44581E+07
       163      810.0  5.42246E+04  1.47292E+07
       164      815.0  5.55468E+04  1.50070E+07
       165      820.0  5.68442E+04  1.52912E+07
       166      825.0  5.34762E+04  1.55586E+07
       167      830.0  5.77838E+04  1.58475E+07
       168      835.0  5.58340E+04  1.61267E+07
       169      840.0  5.73082E+04  1.64132E+07
       170      845.0  5.98846E+04  1.67126E+07
       171      850.0  5.95088E+04  1.70102E+07
       172      855.0  6.10660E+04  1.73155E+07
       173      860.0  6.16938E+04  1.76240E+07
       174      865.0  6.16598E+04  1.79323E+07
       175      870.0  6.24436E+04  1.82445E+07
       176      875.0  6.24430E+04  1.85567E+07
       177      880.0  6.31240E+04  1.88723E+07
       178      885.0  6.54348E+04  1.91995E+07
       179      890.0  6.68668E+04  1.95338E+07
       180      895.0  6.70596E+04  1.98691E+07
       181      900.0  6.90984E+04  2.02146E+07
       182      905.0  6.59164E+04  2.05442E+07
       183      910.0  6.89044E+04  2.08887E+07
       184      915.0  7.07624E+04  2.12425E+07
       185      920.0  6.92016E+04  2.15886E+07
       186      925.0  7.54448E+04  2.19658E+07
       187      930.0  7.16484E+04  2.23240E+07
       188      935.0  7.37606E+04  2.26928E+07
       189      940.0  7.50364E+04  2.30680E+07
       190      945.0  7.17064E+04  2.34265E+07
       191      950.0  7.78888E+04  2.38160E+07
       192      955.0  7.74042E+04  2.42030E+07
       193      960.0  7.94618E+04  2.46003E+07
       194      965.0  8.14122E+04  2.50074E+07
       195      970.0  7.66994E+04  2.53909E+07
       196      975.0  8.22934E+04  2.58023E+07
       197      980.0  8.06460E+04  2.62056E+07
       198      985.0  8.27312E+04  2.66192E+07
       199      990.0  8.61562E+04  2.70500E+07
       200      995.0  8.30434E+04  2.74652E+07
       201     1000.0  8.58096E+04  2.78943E+07
       202     1005.0  8.87640E+04  2.83381E+07
       203     1010.0  8.76236E+04  2.87762E+07
       204     1015.0  8.81840E+04  2.92171E+07
       205     1020.0  9.03952E+04  2.96691E+07
       206     1025.0  8.94956E+04  3.01166E+07
       207     1030.0  9.37088E+04  3.05851E+07
       208     1035.0  9.43512E+04  3.10569E+07
       209     1040.0  9.24266E+04  3.15190E+07
       210     1045.0  9.72252E+04  3.20051E+07
       211     1050.0  9.29276E+04  3.24698E+07
       212     1055.0  9.96298E+04  3.29679E+07
       213     1060.0  1.00834E+05  3.34721E+07
       214     1065.0  9.87108E+04  3.39656E+07
       215     1070.0  1.05106E+05  3.44912E+07
       216     1075.0  1.01488E+05  3.49986E+07
       217     1080.0  1.02811E+05  3.55127E+07
       218     1085.0  1.05229E+05  3.60388E+07
       219     1090.0  1.03571E+05  3.65567E+07
       220     1095.0  1.09120E+05  3.71023E+07
       221     1100.0  1.11040E+05  3.76575E+07
       222     1105.0  1.09267E+05  3.82038E+07
       223     1110.0  1.14003E+05  3.87738E+07
       224     1115.0  1.10319E+05  3.93254E+07
       225     1120.0  1.14738E+05  3.98991E+07
       226     1125.0  1.14958E+05  4.04739E+07
       227     1130.0  1.16569E+05  4.10567E+07
       228     1135.0  1.16940E+05  4.16414E+07
       229     1140.0  1.21550E+05  4.22492E+07
       230     1145.0  1.20772E+05  4.28530E+07
       231     1150.0  1.24178E+05  4.34739E+07
       232     1155.0  1.22972E+05  4.40888E+07
       233     1160.0  1.21413E+05  4.46959E+07
       234     1165.0  1.28066E+05  4.53362E+07
       235     1170.0  1.25842E+05  4.59654E+07
       236     1175.0  1.31628E+05  4.66235E+07
       237     1180.0  1.32936E+05  4.72882E+07
       238     1185.0  1.31520E+05  4.79458E+07
       239     1190.0  1.33822E+05  4.86149E+07
       240     1195.0  1.32478E+05  4.92773E+07
       241     1200.0  1.33598E+05  4.99453E+07
       242     1205.0  1.43405E+05  5.06623E+07
       243     1210.0  1.36816E+05  5.13464E+07
       244     1215.0  1.43939E+05  5.20661E+07
       245     1220.0  1.42375E+05  5.27780E+07
       246     1225.0  1.39995E+05  5.34780E+07
       247     1230.0  1.47951E+05  5.42177E+07
       248     1235.0  1.46783E+05  5.49516E+07
       249     1240.0  1.47137E+05  5.56873E+07
       250     1245.0  1.50841E+05  5.64415E+07
       251     1250.0  1.53333E+05  5.72082E+07
       252     1255.0  1.53369E+05  5.79750E+07
       253     1260.0  1.57248E+05  5.87613E+07
       254     1265.0  1.55300E+05  5.95378E+07
       255     1270.0  1.56949E+05  6.03225E+07
       256     1275.0  1.60264E+05  6.11238E+07
       257     1280.0  1.60787E+05  6.19278E+07
       258     1285.0  1.67624E+05  6.27659E+07
       259     1290.0  1.64493E+05  6.35884E+07
       260     1295.0  1.66816E+05  6.44224E+07
       261     1300.0  1.73806E+05  6.52915E+07
       262     1305.0  1.66623E+05  6.61246E+07
       263     1310.0  1.74383E+05  6.69965E+07
       264     1315.0  1.75538E+05  6.78742E+07
       265     1320.0  1.76971E+05  6.87590E+07
       266     1325.0  1.81254E+05  6.96653E+07
       267     1330.0  1.79979E+05  7.05652E+07
       268     1335.0  1.80879E+05  7.14696E+07
       269     1340.0  1.87440E+05  7.24068E+07
       270     1345.0  1.84775E+05  7.33307E+07
       271     1350.0  1.90705E+05  7.42842E+07
       272     1355.0  1.87594E+05  7.52222E+07
       273     1360.0  1.90462E+05  7.61745E+07
       274     1365.0  1.97235E+05  7.71607E+07
       275     1370.0  1.95646E+05  7.81389E+07
       276     1375.0  2.02717E+05  7.91525E+07
       277     1380.0  1.99682E+05  8.01509E+07
       278     1385.0  2.02182E+05  8.11618E+07
       279     1390.0  2.06119E+05  8.21924E+07
       280     1395.0  2.11493E+05  8.32499E+07
       281     1400.0  2.02827E+05  8.42640E+07
       282     1405.0  2.16156E+05  8.53448E+07
       283     1410.0  2.10112E+05  8.63953E+07
       284     1415.0  2.14071E+05  8.74657E+07
       285     1420.0  2.23089E+05  8.85811E+07
       286     1425.0  2.18334E+05  8.96728E+07
       287     1430.0  2.28279E+05  9.08142E+07
       288     1435.0  2.26303E+05  9.19457E+07
       289     1440.0  2.25772E+05  9.30746E+07
       290     1445.0  2.32534E+05  9.42372E+07
       291     1450.0  2.30477E+05  9.53896E+07
       292     1455.0  2.34228E+05  9.65608E+07
       293     1460.0  2.45043E+05  9.77860E+07
       294     1465.0  2.32615E+05  9.89490E+07
       295     1470.0  2.46565E+05  1.00182E+08
       296     1475.0  2.42050E+05  1.01392E+08
       297     1480.0  2.48355E+05  1.02634E+08
       298     1485.0  2.54024E+05  1.03904E+08
       299     1490.0  2.49759E+05  1.05153E+08
       300     1495.0  2.54721E+05  1.06426E+08
       301     1500.0  2.59500E+05  1.07724E+08
       302     1505.0  2.62408E+05  1.09036E+08
       303     1510.0  2.64505E+05  1.10358E+08
       304     1515.0  2.66103E+05  1.11689E+08
       305     1520.0  2.65740E+05  1.13018E+08
       306     1525.0  2.76231E+05  1.14399E+08
       307     1530.0  2.72953E+05  1.15764E+08
       308     1535.0  2.77165E+05  1.17149E+08
       309     1540.0  2.83147E+05  1.18565E+08
       310     1545.0  2.79224E+05  1.19961E+08
       311     1550.0  2.87993E+05  1.21401E+08
       312     1555.0  2.86179E+05  1.22832E+08
       313     1560.0  2.86949E+05  1.24267E+08
       314     1565.0  3.03610E+05  1.25785E+08
       315     1570.0  2.90886E+05  1.27239E+08
       316     1575.0  3.09136E+05  1.28785E+08
       317     1580.0  3.02240E+05  1.30296E+08
       318     1585.0  3.00949E+05  1.31801E+08
       319     1590.0  3.13744E+05  1.33370E+08
       320     1595.0  3.11804E+05  1.34929E+08
       321     1600.0  3.14021E+05  1.36499E+08
       322     1605.0  3.19691E+05  1.38097E+08
       323     1610.0  3.13625E+05  1.39665E+08
       324     1615.0  3.28803E+05  1.41309E+08
       325     1620.0  3.31466E+05  1.42967E+08
       326     1625.0  3.28823E+05  1.44611E+08
       327     1630.0  3.35041E+05  1.46286E+08
       328     1635.0  3.36683E+05  1.47970E+08
       329     1640.0  3.40358E+05  1.49671E+08
       330     1645.0  3.45228E+05  1.51397E+08
       331     1650.0  3.45720E+05  1.53126E+08
       332     1655.0  3.47495E+05  1.54864E+08
       333     1660.0  3.55751E+05  1.56642E+08
       334     1665.0  3.53275E+05  1.58409E+08
       335     1670.0  3.68474E+05  1.60251E+08
       336     1675.0  3.60187E+05  1.62052E+08
       337     1680.0  3.68507E+05  1.63894E+08
       338     1685.0  3.75639E+05  1.65773E+08
       339     1690.0  3.71195E+05  1.67629E+08
       340     1695.0  3.75131E+05  1.69504E+08
       341     1700.0  3.81894E+05  1.71414E+08
       342     1705.0  3.80905E+05  1.73318E+08
       343     1710.0  3.96527E+05  1.75301E+08
       344     1715.0  3.86850E+05  1.77235E+08
       345     1720.0  3.93894E+05  1.79205E+08
       346     1725.0  4.00847E+05  1.81209E+08
       347     1730.0  4.00957E+05  1.83214E+08
       348     1735.0  4.11932E+05  1.85273E+08
       349     1740.0  4.11581E+05  1.87331E+08
       350     1745.0  4.15299E+05  1.89408E+08
       351     1750.0  4.17911E+05  1.91497E+08
       352     1755.0  4.23207E+05  1.93613E+08
       353     1760.0  4.21065E+05  1.95719E+08
       354     1765.0  4.33715E+05  1.97887E+08
       355     1770.0  4.29575E+05  2.00035E+08
       356     1775.0  4.36519E+05  2.02218E+08
       357     1780.0  4.49299E+05  2.04464E+08
       358     1785.0  4.36758E+05  2.06648E+08
       359     1790.0  4.59720E+05  2.08947E+08
       360     1795.0  4.52100E+05  2.11207E+08
       361     1800.0  4.53281E+05  2.13473E+08
       362     1805.0  4.66510E+05  2.15806E+08
       363     1810.0  4.61040E+05  2.18111E+08
       364     1815.0  4.74000E+05  2.20481E+08
       365     1820.0  4.86395E+05  2.22913E+08
       366     1825.0  4.74913E+05  2.25288E+08
       367     1830.0  4.84306E+05  2.27709E+08
       368     1835.0  4.81529E+05  2.30117E+08
       369     1840.0  4.89655E+05  2.32565E+08
       370     1845.0  5.03781E+05  2.35084E+08
       371     1850.0  4.94821E+05  2.37558E+08
       372     1855.0  5.08785E+05  2.40102E+08
       373     1860.0  5.13197E+05  2.42668E+08
       374     1865.0  5.10995E+05  2.45223E+08
       375     1870.0  5.20608E+05  2.47826E+08
       376     1875.0  5.25129E+05  2.50452E+08
       377     1880.0  5.17892E+05  2.53041E+08
       378     1885.0  5.41339E+05  2.55748E+08
       379     1890.0  5.39765E+05  2.58447E+08
       380     1895.0  5.41489E+05  2.61154E+08
       381     1900.0  5.57460E+05  2.63942E+08
       382     1905.0  5.36047E+05  2.66622E+08
       383     1910.0  5.67037E+05  2.69457E+08
       384     1915.0  5.54937E+05  2.72232E+08
       385     1920.0  5.58509E+05  2.75024E+08
       386     1925.0  5.82923E+05  2.77939E+08
       387     1930.0  5.67895E+05  2.80778E+08
       388     1935.0  5.92358E+05  2.83740E+08
       389     1940.0  5.83345E+05  2.86657E+08
       390     1945.0  5.81499E+05  2.89564E+08
       391     1950.0  5.97158E+05  2.92550E+08
       392     1955.0  6.03798E+05  2.95569E+08
       393     1960.0  6.06984E+05  2.98604E+08
       394     1965.0  6.25345E+05  3.01731E+08
       395     1970.0  6.03979E+05  3.04751E+08
       396     1975.0  6.22331E+05  3.07862E+08
       397     1980.0  6.24724E+05  3.10986E+08
       398     1985.0  6.29283E+05  3.14132E+08
       399     1990.0  6.41879E+05  3.17342E+08
       400     1995.0  6.40584E+05  3.20545E+08
       401     2000.0  6.44054E+05  3.23765E+08
       402     2005.0  6.69406E+05  3.27112E+08
       403     2010.0  6.51007E+05  3.30367E+08
       404     2015.0  6.58351E+05  3.33659E+08
       405     2020.0  6.72970E+05  3.37024E+08
       406     2025.0  6.62070E+05  3.40334E+08
       407     2030.0  6.89963E+05  3.43784E+08
       408     2035.0  6.90955E+05  3.47238E+08
       409     2040.0  6.96513E+05  3.50721E+08
       410     2045.0  7.08033E+05  3.54261E+08
       411     2050.0  6.90349E+05  3.57713E+08
       412     2055.0  7.10954E+05  3.61268E+08
       413     2060.0  7.12971E+05  3.64833E+08
       414     2065.0  7.14098E+05  3.68403E+08
       415     2070.0  7.41606E+05  3.72111E+08
       416     2075.0  7.27755E+05  3.75750E+08
       417     2080.0  7.40507E+05  3.79452E+08
       418     2085.0  7.45286E+05  3.83179E+08
       419     2090.0  7.48508E+05  3.86921E+08
       420     2095.0  7.54749E+05  3.90695E+08
       421     2100.0  7.70301E+05  3.94547E+08
       422     2105.0  7.69186E+05  3.98393E+08
       423     2110.0  7.83304E+05  4.02309E+08
       424     2115.0  7.82342E+05  4.06221E+08
       425     2120.0  7.84875E+05  4.10145E+08
       426     2125.0  7.91377E+05  4.14102E+08
       427     2130.0  7.96060E+05  4.18082E+08
       428     2135.0  8.05943E+05  4.22112E+08
       429     2140.0  8.23410E+05  4.26229E+08
       430     2145.0  8.17848E+05  4.30318E+08
       431     2150.0  8.44328E+05  4.34540E+08
       432     2155.0  8.35740E+05  4.38719E+08
       433     2160.0  8.30451E+05  4.42871E+08
       434     2165.0  8.51038E+05  4.47126E+08
       435     2170.0  8.34703E+05  4.51300E+08
       436     2175.0  8.74397E+05  4.55672E+08
       437     2180.0  8.70396E+05  4.60024E+08
       438     2185.0  8.81081E+05  4.64429E+08
       439     2190.0  8.79573E+05  4.68827E+08
       440     2195.0  8.84639E+05  4.73250E+08
       441     2200.0  8.84474E+05  4.77672E+08
       442     2205.0  9.09570E+05  4.82220E+08
       443     2210.0  9.11003E+05  4.86775E+08
       444     2215.0  9.18501E+05  4.91368E+08
       445     2220.0  9.28713E+05  4.96011E+08
       446     2225.0  9.26913E+05  5.00646E+08
       447     2230.0  9.44082E+05  5.05366E+08
       448     2235.0  9.33894E+05  5.10036E+08
       449     2240.0  9.45322E+05  5.14762E+08
       450     2245.0  9.62864E+05  5.19577E+08
       451     2250.0  9.75912E+05  5.24456E+08
       452     2255.0  9.66311E+05  5.29288E+08
       453     2260.0  1.00086E+06  5.34292E+08
       454     2265.0  9.74042E+05  5.39162E+08
       455     2270.0  9.97997E+05  5.44152E+08
       456     2275.0  9.94855E+05  5.49127E+08
       457     2280.0  1.01384E+06  5.54196E+08
       458     2285.0  1.03349E+06  5.59363E+08
       459     2290.0  1.02535E+06  5.64490E+08
       460     2295.0  1.05015E+06  5.69741E+08
       461     2300.0  1.04346E+06  5.74958E+08
       462     2305.0  1.04452E+06  5.80181E+08
       463     2310.0  1.05357E+06  5.85449E+08
       464     2315.0  1.06688E+06  5.90783E+08
       465     2320.0  1.07678E+06  5.96167E+08
       466     2325.0  1.09146E+06  6.01624E+08
       467     2330.0  1.09860E+06  6.07117E+08
       468     2335.0  1.10446E+06  6.12640E+08
       469     2340.0  1.11179E+06  6.18198E+08
       470     2345.0  1.10960E+06  6.23746E+08
       471     2350.0  1.12776E+06  6.29385E+08
       472     2355.0  1.13543E+06  6.35062E+08
       473     2360.0  1.14460E+06  6.40785E+08
       474     2365.0  1.16252E+06  6.46598E+08
       475     2370.0  1.15553E+06  6.52376E+08
       476     2375.0  1.17279E+06  6.58240E+08
       477     2380.0  1.18160E+06  6.64148E+08
       478     2385.0  1.17895E+06  6.70042E+08
       479     2390.0  1.19935E+06  6.76039E+08
       480     2395.0  1.21070E+06  6.82093E+08
       481     2400.0  1.21312E+06  6.88158E+08
       482     2405.0  1.24615E+06  6.94389E+08
       483     2410.0  1.21894E+06  7.00484E+08
       484     2415.0  1.23788E+06  7.06673E+08
       485     2420.0  1.25225E+06  7.12934E+08
       486     2425.0  1.24586E+06  7.19164E+08
       487     2430.0  1.29280E+06  7.25628E+08
       488     2435.0  1.27255E+06  7.31990E+08
       489     2440.0  1.29479E+06  7.38464E+08
       490     2445.0  1.29441E+06  7.44936E+08
       491     2450.0  1.31069E+06  7.51490E+08
       492     2455.0  1.31192E+06  7.58049E+08
       493     2460.0  1.33491E+06  7.64724E+08
       494     2465.0  1.33192E+06  7.71384E+08
       495     2470.0  1.36197E+06  7.78193E+08
       496     2475.0  1.36189E+06  7.85003E+08
       497     2480.0  1.35850E+06  7.91795E+08
       498     2485.0  1.38343E+06  7.98713E+08
       499     2490.0  1.36690E+06  8.05547E+08
       500     2495.0  1.39509E+06  8.12522E+08
       501     2500.0  1.40271E+06  8.19536E+08
       502     2505.0  1.42343E+06  8.26653E+08
       503     2510.0  1.43875E+06  8.33847E+08
       504     2515.0  1.44191E+06  8.41056E+08
       505     2520.0  1.44881E+06  8.48300E+08
       506     2525.0  1.47125E+06  8.55657E+08
       507     2530.0  1.44573E+06  8.62885E+08
       508     2535.0  1.49341E+06  8.70352E+08
       509     2540.0  1.48763E+06  8.77791E+08
       510     2545.0  1.50526E+06  8.85317E+08
       511     2550.0  1.51922E+06  8.92913E+08
       512     2555.0  1.51133E+06  9.00470E+08
       513     2560.0  1.53312E+06  9.08135E+08
       514     2565.0  1.55556E+06  9.15913E+08
       515     2570.0  1.53855E+06  9.23606E+08
       516     2575.0  1.58692E+06  9.31540E+08
       517     2580.0  1.58179E+06  9.39449E+08
       518     2585.0  1.58643E+06  9.47382E+08
       519     2590.0  1.61000E+06  9.55432E+08
       520     2595.0  1.60937E+06  9.63478E+08
       521     2600.0  1.62000E+06  9.71578E+08
       522     2605.0  1.64128E+06  9.79785E+08
       523     2610.0  1.63779E+06  9.87974E+08
       524     2615.0  1.66396E+06  9.96293E+08
       525     2620.0  1.67655E+06  1.00468E+09
       526     2625.0  1.67747E+06  1.01306E+09
       527     2630.0  1.70860E+06  1.02161E+09
       528     2635.0  1.69546E+06  1.03008E+09
       529     2640.0  1.70543E+06  1.03861E+09
       530     2645.0  1.74209E+06  1.04732E+09
       531     2650.0  1.74105E+06  1.05603E+09
       532     2655.0  1.77245E+06  1.06489E+09
       533     2660.0  1.76298E+06  1.07370E+09
       534     2665.0  1.77766E+06  1.08259E+09
       535     2670.0  1.80022E+06  1.09159E+09
       536     2675.0  1.79646E+06  1.10058E+09
       537     2680.0  1.83118E+06  1.10973E+09
       538     2685.0  1.82475E+06  1.11886E+09
       539     2690.0  1.83474E+06  1.12803E+09
       540     2695.0  1.85231E+06  1.13729E+09
       541     2700.0  1.87624E+06  1.14667E+09
       542     2705.0  1.87833E+06  1.15606E+09
       543     2710.0  1.90857E+06  1.16561E+09
       544     2715.0  1.89785E+06  1.17510E+09
       545     2720.0  1.92556E+06  1.18472E+09
       546     2725.0  1.93037E+06  1.19438E+09
       547     2730.0  1.94891E+06  1.20412E+09
       548     2735.0  1.96645E+06  1.21395E+09
       549     2740.0  1.97850E+06  1.22384E+09
       550     2745.0  1.99048E+06  1.23380E+09
       551     2750.0  2.00308E+06  1.24381E+09
       552     2755.0  2.01453E+06  1.25388E+09
       553     2760.0  2.01928E+06  1.26398E+09
       554     2765.0  2.06830E+06  1.27432E+09
       555     2770.0  2.04253E+06  1.28454E+09
       556     2775.0  2.07077E+06  1.29489E+09
       557     2780.0  2.09341E+06  1.30536E+09
       558     2785.0  2.08487E+06  1.31578E+09
       559     2790.0  2.14138E+06  1.32649E+09
       560     2795.0  2.11248E+06  1.33705E+09
       561     2800.0  2.15196E+06  1.34781E+09
       562     2805.0  2.15783E+06  1.35860E+09
       563     2810.0  2.17530E+06  1.36948E+09
       564     2815.0  2.19069E+06  1.38043E+09
       565     2820.0  2.22912E+06  1.39157E+09
       566     2825.0  2.20426E+06  1.40260E+09
       567     2830.0  2.23677E+06  1.41378E+09
       568     2835.0  2.24625E+06  1.42501E+09
       569     2840.0  2.25613E+06  1.43629E+09
       570     2845.0  2.28422E+06  1.44771E+09
       571     2850.0  2.27960E+06  1.45911E+09
       572     2855.0  2.31841E+06  1.47070E+09
       573     2860.0  2.33007E+06  1.48235E+09
       574     2865.0  2.32684E+06  1.49399E+09
       575     2870.0  2.36596E+06  1.50582E+09
       576     2875.0  2.38046E+06  1.51772E+09
       577     2880.0  2.37796E+06  1.52961E+09
       578     2885.0  2.41287E+06  1.54167E+09
       579     2890.0  2.41885E+06  1.55377E+09
       580     2895.0  2.44636E+06  1.56600E+09
       581     2900.0  2.47265E+06  1.57836E+09
       582     2905.0  2.45267E+06  1.59063E+09
       583     2910.0  2.50110E+06  1.60313E+09
       584     2915.0  2.47816E+06  1.61552E+09
       585     2920.0  2.51025E+06  1.62807E+09
       586     2925.0  2.55720E+06  1.64086E+09
       587     2930.0  2.53092E+06  1.65351E+09
       588     2935.0  2.58891E+06  1.66646E+09
       589     2940.0  2.57315E+06  1.67932E+09
       590     2945.0  2.61381E+06  1.69239E+09
       591     2950.0  2.62066E+06  1.70550E+09
       592     2955.0  2.63575E+06  1.71868E+09
       593     2960.0  2.65553E+06  1.73195E+09
       594     2965.0  2.69656E+06  1.74544E+09
       595     2970.0  2.67347E+06  1.75880E+09
       596     2975.0  2.71332E+06  1.77237E+09
       597     2980.0  2.71795E+06  1.78596E+09
       598     2985.0  2.73181E+06  1.79962E+09
       599     2990.0  2.78156E+06  1.81353E+09
       600     2995.0  2.77286E+06  1.82739E+09
       601     3000.0  2.79827E+06  1.84138E+09
       602     3005.0  2.83379E+06  1.85555E+09
       603     3010.0  2.82399E+06  1.86967E+09
       604     3015.0  2.84694E+06  1.88391E+09
       605     3020.0  2.86538E+06  1.89823E+09
       606     3025.0  2.86542E+06  1.91256E+09
       607     3030.0  2.92574E+06  1.92719E+09
       608     3035.0  2.93059E+06  1.94184E+09
       609     3040.0  2.96889E+06  1.95669E+09
       610     3045.0  2.97462E+06  1.97156E+09
       611     3050.0  2.96960E+06  1.98641E+09
       612     3055.0  2.99558E+06  2.00138E+09
       613     3060.0  3.01613E+06  2.01647E+09
       614     3065.0  3.04199E+06  2.03168E+09
       615     3070.0  3.06524E+06  2.04700E+09
       616     3075.0  3.07055E+06  2.06235E+09
       617     3080.0  3.11781E+06  2.07794E+09
       618     3085.0  3.11718E+06  2.09353E+09
       619     3090.0  3.12304E+06  2.10914E+09
       620     3095.0  3.15777E+06  2.12493E+09
       621     3100.0  3.18000E+06  2.14083E+09
       622     3105.0  3.21154E+06  2.15689E+09
       623     3110.0  3.23131E+06  2.17305E+09
       624     3115.0  3.25326E+06  2.18931E+09
       625     3120.0  3.25767E+06  2.20560E+09
       626     3125.0  3.26936E+06  2.22195E+09
       627     3130.0  3.28071E+06  2.23835E+09
       628     3135.0  3.33829E+06  2.25504E+09
       629     3140.0  3.33095E+06  2.27170E+09
       630     3145.0  3.37856E+06  2.28859E+09
       631     3150.0  3.41846E+06  2.30568E+09
       632     3155.0  3.39707E+06  2.32267E+09
       633     3160.0  3.42644E+06  2.33980E+09
       634     3165.0  3.43439E+06  2.35697E+09
       635     3170.0  3.44767E+06  2.37421E+09
       636     3175.0  3.51901E+06  2.39181E+09
       637     3180.0  3.51692E+06  2.40939E+09
       638     3185.0  3.56204E+06  2.42720E+09
       639     3190.0  3.56920E+06  2.44505E+09
       640     3195.0  3.58563E+06  2.46298E+09
       641     3200.0  3.57543E+06  2.48085E+09
       642     3205.0  3.61941E+06  2.49895E+09
       643     3210.0  3.64183E+06  2.51716E+09
       644     3215.0  3.67766E+06  2.53555E+09
       645     3220.0  3.70409E+06  2.55407E+09
       646     3225.0  3.72204E+06  2.57268E+09
       647     3230.0  3.74740E+06  2.59142E+09
       648     3235.0  3.74550E+06  2.61014E+09
       649     3240.0  3.78927E+06  2.62909E+09
       650     3245.0  3.80120E+06  2.64809E+09
       651     3250.0  3.82735E+06  2.66723E+09
       652     3255.0  3.86475E+06  2.68656E+09
       653     3260.0  3.91172E+06  2.70611E+09
       654     3265.0  3.89786E+06  2.72560E+09
       655     3270.0  3.93137E+06  2.74526E+09
       656     3275.0  3.90416E+06  2.76478E+09
       657     3280.0  3.97244E+06  2.78464E+09
       658     3285.0  4.00378E+06  2.80466E+09
       659     3290.0  4.02049E+06  2.82476E+09
       660     3295.0  4.08915E+06  2.84521E+09
       661     3300.0  4.05018E+06  2.86546E+09
       662     3305.0  4.12129E+06  2.88607E+09
       663     3310.0  4.10283E+06  2.90658E+09
       664     3315.0  4.13765E+06  2.92727E+09
       665     3320.0  4.17159E+06  2.94813E+09
       666     3325.0  4.20670E+06  2.96916E+09
       667     3330.0  4.24508E+06  2.99039E+09
       668     3335.0  4.25697E+06  3.01167E+09
       669     3340.0  4.26364E+06  3.03299E+09
       670     3345.0  4.27447E+06  3.05436E+09
       671     3350.0  4.32454E+06  3.07599E+09
       672     3355.0  4.33072E+06  3.09764E+09
       673     3360.0  4.40045E+06  3.11964E+09
       674     3365.0  4.41610E+06  3.14172E+09
       675     3370.0  4.43412E+06  3.16389E+09
       676     3375.0  4.48072E+06  3.18630E+09
       677     3380.0  4.48584E+06  3.20872E+09
       678     3385.0  4.46550E+06  3.23105E+09
       679     3390.0  4.53947E+06  3.25375E+09
       680     3395.0  4.54745E+06  3.27649E+09
       681     3400.0  4.62827E+06  3.29963E+09
       682     3405.0  4.64762E+06  3.32287E+09
       683     3410.0  4.65557E+06  3.34614E+09
       684     3415.0  4.66636E+06  3.36948E+09
       685     3420.0  4.68329E+06  3.39289E+09
       686     3425.0  4.70231E+06  3.41640E+09
       687     3430.0  4.78579E+06  3.44033E+09
       688     3435.0  4.77996E+06  3.46423E+09
       689     3440.0  4.83448E+06  3.48840E+09
       690     3445.0  4.83481E+06  3.51258E+09
       691     3450.0  4.87714E+06  3.53696E+09
       692     3455.0  4.88817E+06  3.56141E+09
       693     3460.0  4.91995E+06  3.58601E+09
       694     3465.0  4.96330E+06  3.61082E+09
       695     3470.0  5.00402E+06  3.63584E+09
       696     3475.0  5.02889E+06  3.66099E+09
       697     3480.0  5.04956E+06  3.68623E+09
       698     3485.0  5.10195E+06  3.71174E+09
       699     3490.0  5.06198E+06  3.73705E+09
       700     3495.0  5.12014E+06  3.76265E+09
       701     3500.0  5.14304E+06  3.78837E+09
       702     3505.0  5.20976E+06  3.81442E+09
       703     3510.0  5.27302E+06  3.84078E+09
       704     3515.0  5.25745E+06  3.86707E+09
       705     3520.0  5.32266E+06  3.89368E+09
       706     3525.0  5.30655E+06  3.92022E+09
       707     3530.0  5.30326E+06  3.94673E+09
       708     3535.0  5.39461E+06  3.97371E+09
       709     3540.0  5.39028E+06  4.00066E+09
       710     3545.0  5.45827E+06  4.02795E+09
       711     3550.0  5.50253E+06  4.05546E+09
       712     3555.0  5.49791E+06  4.08295E+09
       713     3560.0  5.54826E+06  4.11069E+09
       714     3565.0  5.57523E+06  4.13857E+09
       715     3570.0  5.56222E+06  4.16638E+09
       716     3575.0  5.66170E+06  4.19469E+09
       717     3580.0  5.67915E+06  4.22308E+09
       718     3585.0  5.70820E+06  4.25162E+09
       719     3590.0  5.75193E+06  4.28038E+09
       720     3595.0  5.75940E+06  4.30918E+09
       721     3600.0  5.78954E+06  4.33813E+09
       722     3605.0  5.82566E+06  4.36726E+09
       723     3610.0  5.84719E+06  4.39649E+09
       724     3615.0  5.91774E+06  4.42608E+09
       725     3620.0  5.95329E+06  4.45585E+09
       726     3625.0  5.99051E+06  4.48580E+09
       727     3630.0  6.02790E+06  4.51594E+09
       728     3635.0  5.99618E+06  4.54592E+09
       729     3640.0  6.04498E+06  4.57615E+09
       730     3645.0  6.10196E+06  4.60666E+09
       731     3650.0  6.13573E+06  4.63733E+09
       732     3655.0  6.24314E+06  4.66855E+09
       733     3660.0  6.19725E+06  4.69954E+09
       734     3665.0  6.27533E+06  4.73091E+09
       735     3670.0  6.27133E+06  4.76227E+09
       736     3675.0  6.32250E+06  4.79388E+09
       737     3680.0  6.35362E+06  4.82565E+09
       738     3685.0  6.36310E+06  4.85747E+09
       739     3690.0  6.43243E+06  4.88963E+09
       740     3695.0  6.47075E+06  4.92198E+09
       741     3700.0  6.50898E+06  4.95453E+09
       742     3705.0  6.53850E+06  4.98722E+09
       743     3710.0  6.58146E+06  5.02013E+09
       744     3715.0  6.57378E+06  5.05300E+09
       745     3720.0  6.65740E+06  5.08628E+09
       746     3725.0  6.69334E+06  5.11975E+09
       747     3730.0  6.74710E+06  5.15349E+09
       748     3735.0  6.78658E+06  5.18742E+09
       749     3740.0  6.78235E+06  5.22133E+09
       750     3745.0  6.84492E+06  5.25555E+09
       751     3750.0  6.85528E+06  5.28983E+09
       752     3755.0  6.91737E+06  5.32442E+09
       753     3760.0  6.94362E+06  5.35914E+09
       754     3765.0  7.03041E+06  5.39429E+09
       755     3770.0  7.02847E+06  5.42943E+09
       756     3775.0  7.08054E+06  5.46483E+09
       757     3780.0  7.10596E+06  5.50036E+09
       758     3785.0  7.13064E+06  5.53602E+09
       759     3790.0  7.19290E+06  5.57198E+09
       760     3795.0  7.20417E+06  5.60800E+09
       761     3800.0  7.30963E+06  5.64455E+09
       762     3805.0  7.30765E+06  5.68109E+09
       763     3810.0  7.37249E+06  5.71795E+09
       764     3815.0  7.37419E+06  5.75482E+09
       765     3820.0  7.47192E+06  5.79218E+09
       766     3825.0  7.46574E+06  5.82951E+09
       767     3830.0  7.50840E+06  5.86705E+09
       768     3835.0  7.57096E+06  5.90491E+09
       769     3840.0  7.61550E+06  5.94298E+09
       770     3845.0  7.65199E+06  5.98124E+09
       771     3850.0  7.65209E+06  6.01950E+09
       772     3855.0  7.74032E+06  6.05821E+09
       773     3860.0  7.73528E+06  6.09688E+09
       774     3865.0  7.80384E+06  6.13590E+09
       775     3870.0  7.87818E+06  6.17529E+09
       776     3875.0  7.92087E+06  6.21490E+09
       777     3880.0  7.95119E+06  6.25465E+09
       778     3885.0  7.99812E+06  6.29464E+09
       779     3890.0  8.02810E+06  6.33478E+09
       780     3895.0  8.08062E+06  6.37519E+09
       781     3900.0  8.12095E+06  6.41579E+09
       782     3905.0  8.17583E+06  6.45667E+09
       783     3910.0  8.20327E+06  6.49769E+09
       784     3915.0  8.23491E+06  6.53886E+09
       785     3920.0  8.29647E+06  6.58034E+09
       786     3925.0  8.33406E+06  6.62201E+09
       787     3930.0  8.36672E+06  6.66385E+09
       788     3935.0  8.46026E+06  6.70615E+09
       789     3940.0  8.47040E+06  6.74850E+09
       790     3945.0  8.53067E+06  6.79115E+09
       791     3950.0  8.59904E+06  6.83415E+09
       792     3955.0  8.58943E+06  6.87710E+09
       793     3960.0  8.68405E+06  6.92052E+09
       794     3965.0  8.71927E+06  6.96411E+09
       795     3970.0  8.76291E+06  7.00793E+09
       796     3975.0  8.82829E+06  7.05207E+09
       797     3980.0  8.85462E+06  7.09634E+09
       798     3985.0  8.88146E+06  7.14075E+09
       799     3990.0  8.98036E+06  7.18565E+09
       800     3995.0  8.96499E+06  7.23048E+09
       801     4000.0  9.07813E+06  7.27587E+09
       802     4005.0  9.05864E+06  7.32116E+09
       803     4010.0  9.14696E+06  7.36690E+09
       804     4015.0  9.20780E+06  7.41293E+09
       805     4020.0  9.21894E+06  7.45903E+09
       806     4025.0  9.31103E+06  7.50558E+09
       807     4030.0  9.35114E+06  7.55234E+09
       808     4035.0  9.37934E+06  7.59924E+09
       809     4040.0  9.47707E+06  7.64662E+09
       810     4045.0  9.52207E+06  7.69423E+09
       811     4050.0  9.54256E+06  7.74194E+09
       812     4055.0  9.56781E+06  7.78978E+09
       813     4060.0  9.62380E+06  7.83790E+09
       814     4065.0  9.69645E+06  7.88639E+09
       815     4070.0  9.74740E+06  7.93512E+09
       816     4075.0  9.80592E+06  7.98415E+09
       817     4080.0  9.91028E+06  8.03370E+09
       818     4085.0  9.88514E+06  8.08313E+09
       819     4090.0  9.95892E+06  8.13292E+09
       820     4095.0  1.00368E+07  8.18311E+09
       821     4100.0  1.00315E+07  8.23327E+09
       822     4105.0  1.01230E+07  8.28388E+09
       823     4110.0  1.01812E+07  8.33479E+09
       824     4115.0  1.02161E+07  8.38587E+09
       825     4120.0  1.03091E+07  8.43741E+09
       826     4125.0  1.03049E+07  8.48894E+09
       827     4130.0  1.03645E+07  8.54076E+09
       828     4135.0  1.04703E+07  8.59311E+09
       829     4140.0  1.04692E+07  8.64546E+09
       830     4145.0  1.05714E+07  8.69831E+09
       831     4150.0  1.06427E+07  8.75153E+09
       832     4155.0  1.06567E+07  8.80481E+09
       833     4160.0  1.07706E+07  8.85866E+09
       834     4165.0  1.07274E+07  8.91230E+09
       835     4170.0  1.08333E+07  8.96647E+09
       836     4175.0  1.08883E+07  9.02091E+09
       837     4180.0  1.09318E+07  9.07557E+09
       838     4185.0  1.10758E+07  9.13095E+09
       839     4190.0  1.10792E+07  9.18634E+09
       840     4195.0  1.11259E+07  9.24197E+09
       841     4200.0  1.11498E+07  9.29772E+09
       842     4205.0  1.12298E+07  9.35387E+09
       843     4210.0  1.12474E+07  9.41011E+09
       844     4215.0  1.13798E+07  9.46701E+09
       845     4220.0  1.14002E+07  9.52401E+09
       846     4225.0  1.15112E+07  9.58156E+09
       847     4230.0  1.15455E+07  9.63929E+09
       848     4235.0  1.15819E+07  9.69720E+09
       849     4240.0  1.16637E+07  9.75552E+09
       850     4245.0  1.16752E+07  9.81389E+09
       851     4250.0  1.17577E+07  9.87268E+09
       852     4255.0  1.18770E+07  9.93207E+09
       853     4260.0  1.18992E+07  9.99156E+09
       854     4265.0  1.20056E+07  1.00516E+10
       855     4270.0  1.20182E+07  1.01117E+10
       856     4275.0  1.20388E+07  1.01719E+10
       857     4280.0  1.21090E+07  1.02324E+10
       858     4285.0  1.21990E+07  1.02934E+10
       859     4290.0  1.22642E+07  1.03547E+10
       860     4295.0  1.24049E+07  1.04168E+10
       861     4300.0  1.23549E+07  1.04785E+10
       862     4305.0  1.25162E+07  1.05411E+10
       863     4310.0  1.24656E+07  1.06034E+10
       864     4315.0  1.25817E+07  1.06664E+10
       865     4320.0  1.26641E+07  1.07297E+10
       866     4325.0  1.27104E+07  1.07932E+10
       867     4330.0  1.28142E+07  1.08573E+10
       868     4335.0  1.28736E+07  1.09217E+10
       869     4340.0  1.29153E+07  1.09862E+10
       870     4345.0  1.29509E+07  1.10510E+10
       871     4350.0  1.30223E+07  1.11161E+10
       872     4355.0  1.30533E+07  1.11814E+10
       873     4360.0  1.32114E+07  1.12474E+10
       874     4365.0  1.32463E+07  1.13137E+10
       875     4370.0  1.33447E+07  1.13804E+10
       876     4375.0  1.34052E+07  1.14474E+10
       877     4380.0  1.34343E+07  1.15146E+10
       878     4385.0  1.34670E+07  1.15819E+10
       879     4390.0  1.35657E+07  1.16497E+10
       880     4395.0  1.36443E+07  1.17180E+10
       881     4400.0  1.37766E+07  1.17869E+10
       882     4405.0  1.38360E+07  1.18560E+10
       883     4410.0  1.39015E+07  1.19255E+10
       884     4415.0  1.39378E+07  1.19952E+10
       885     4420.0  1.39496E+07  1.20650E+10
       886     4425.0  1.40185E+07  1.21351E+10
       887     4430.0  1.41359E+07  1.22057E+10
       888     4435.0  1.42284E+07  1.22769E+10
       889     4440.0  1.42823E+07  1.23483E+10
       890     4445.0  1.43719E+07  1.24202E+10
       891     4450.0  1.44384E+07  1.24924E+10
       892     4455.0  1.44874E+07  1.25648E+10
       893     4460.0  1.45462E+07  1.26375E+10
       894     4465.0  1.46306E+07  1.27107E+10
       895     4470.0  1.47221E+07  1.27843E+10
       896     4475.0  1.48183E+07  1.28584E+10
       897     4480.0  1.49192E+07  1.29330E+10
       898     4485.0  1.49797E+07  1.30079E+10
       899     4490.0  1.49733E+07  1.30827E+10
       900     4495.0  1.50435E+07  1.31580E+10
       901     4500.0  1.51135E+07  1.32335E+10
       902     4505.0  1.52452E+07  1.33097E+10
       903     4510.0  1.53672E+07  1.33866E+10
       904     4515.0  1.53907E+07  1.34635E+10
       905     4520.0  1.55626E+07  1.35413E+10
       906     4525.0  1.54916E+07  1.36188E+10
       907     4530.0  1.55927E+07  1.36968E+10
       908     4535.0  1.56470E+07  1.37750E+10
       909     4540.0  1.57768E+07  1.38539E+10
       910     4545.0  1.58628E+07  1.39332E+10
       911     4550.0  1.59898E+07  1.40132E+10
       912     4555.0  1.60372E+07  1.40933E+10
       913     4560.0  1.61172E+07  1.41739E+10
       914     4565.0  1.61498E+07  1.42547E+10
       915     4570.0  1.61901E+07  1.43356E+10
       916     4575.0  1.63238E+07  1.44172E+10
       917     4580.0  1.63933E+07  1.44992E+10
       918     4585.0  1.65293E+07  1.45819E+10
       919     4590.0  1.66332E+07  1.46650E+10
       920     4595.0  1.66293E+07  1.47482E+10
       921     4600.0  1.67381E+07  1.48319E+10
       922     4605.0  1.67886E+07  1.49158E+10
       923     4610.0  1.68588E+07  1.50001E+10
       924     4615.0  1.69844E+07  1.50850E+10
       925     4620.0  1.70855E+07  1.51704E+10
       926     4625.0  1.71839E+07  1.52564E+10
       927     4630.0  1.72563E+07  1.53426E+10
       928     4635.0  1.73115E+07  1.54292E+10
       929     4640.0  1.73742E+07  1.55161E+10
       930     4645.0  1.74179E+07  1.56032E+10
       931     4650.0  1.75569E+07  1.56910E+10
       932     4655.0  1.77269E+07  1.57796E+10
       933     4660.0  1.77478E+07  1.58683E+10
       934     4665.0  1.79018E+07  1.59578E+10
       935     4670.0  1.78928E+07  1.60473E+10
       936     4675.0  1.79904E+07  1.61372E+10
       937     4680.0  1.80919E+07  1.62277E+10
       938     4685.0  1.80977E+07  1.63182E+10
       939     4690.0  1.83041E+07  1.64097E+10
       940     4695.0  1.83326E+07  1.65014E+10
       941     4700.0  1.84627E+07  1.65937E+10
       942     4705.0  1.85190E+07  1.66863E+10
       943     4710.0  1.86250E+07  1.67794E+10
       944     4715.0  1.86460E+07  1.68726E+10
       945     4720.0  1.87995E+07  1.69666E+10
       946     4725.0  1.88917E+07  1.70611E+10
       947     4730.0  1.90292E+07  1.71562E+10
       948     4735.0  1.91481E+07  1.72520E+10
       949     4740.0  1.91381E+07  1.73477E+10
       950     4745.0  1.93010E+07  1.74442E+10
       951     4750.0  1.92842E+07  1.75406E+10
       952     4755.0  1.94278E+07  1.76377E+10
       953     4760.0  1.95154E+07  1.77353E+10
       954     4765.0  1.96317E+07  1.78335E+10
       955     4770.0  1.97528E+07  1.79322E+10
       956     4775.0  1.98354E+07  1.80314E+10
       957     4780.0  1.99100E+07  1.81310E+10
       958     4785.0  1.99870E+07  1.82309E+10
       959     4790.0  2.00592E+07  1.83312E+10
       960     4795.0  2.01616E+07  1.84320E+10
       961     4800.0  2.03556E+07  1.85338E+10
       962     4805.0  2.04066E+07  1.86358E+10
       963     4810.0  2.05431E+07  1.87385E+10
       964     4815.0  2.05572E+07  1.88413E+10
       965     4820.0  2.06889E+07  1.89448E+10
       966     4825.0  2.07731E+07  1.90486E+10
       967     4830.0  2.08224E+07  1.91527E+10
       968     4835.0  2.10600E+07  1.92580E+10
       969     4840.0  2.10666E+07  1.93634E+10
       970     4845.0  2.12273E+07  1.94695E+10
       971     4850.0  2.12553E+07  1.95758E+10
       972     4855.0  2.14247E+07  1.96829E+10
       973     4860.0  2.13728E+07  1.97898E+10
       974     4865.0  2.16020E+07  1.98978E+10
       975     4870.0  2.16548E+07  2.00061E+10
       976     4875.0  2.18356E+07  2.01152E+10
       977     4880.0  2.19376E+07  2.02249E+10
       978     4885.0  2.20196E+07  2.03350E+10
       979     4890.0  2.21026E+07  2.04455E+10
       980     4895.0  2.21601E+07  2.05563E+10
       981     4900.0  2.22844E+07  2.06678E+10
       982     4905.0  2.24219E+07  2.07799E+10
       983     4910.0  2.25407E+07  2.08926E+10
       984     4915.0  2.26266E+07  2.10057E+10
       985     4920.0  2.27668E+07  2.11195E+10
       986     4925.0  2.28037E+07  2.12336E+10
       987     4930.0  2.29455E+07  2.13483E+10
       988     4935.0  2.30645E+07  2.14636E+10
       989     4940.0  2.31118E+07  2.15792E+10
       990     4945.0  2.33007E+07  2.16957E+10
       991     4950.0  2.33870E+07  2.18126E+10
       992     4955.0  2.34973E+07  2.19301E+10
       993     4960.0  2.36003E+07  2.20481E+10
       994     4965.0  2.36971E+07  2.21666E+10
       995     4970.0  2.37773E+07  2.22855E+10
       996     4975.0  2.39613E+07  2.24053E+10
       997     4980.0  2.40549E+07  2.25255E+10
       998     4985.0  2.41630E+07  2.26464E+10
       999     4990.0  2.43219E+07  2.27680E+10
      1000     4995.0  2.43743E+07  2.28898E+10
      1001     5000.0  2.44813E+07  2.30122E+10
      1002     5005.0  2.45407E+07  2.31350E+10
      1003     5010.0  2.46917E+07  2.32584E+10
      1004     5015.0  2.48330E+07  2.33826E+10
      1005     5020.0  2.49315E+07  2.35072E+10
      1006     5025.0  2.51544E+07  2.36330E+10
      1007     5030.0  2.51618E+07  2.37588E+10
      1008     5035.0  2.53132E+07  2.38854E+10
      1009     5040.0  2.54309E+07  2.40125E+10
      1010     5045.0  2.55597E+07  2.41403E+10
      1011     5050.0  2.56592E+07  2.42686E+10
      1012     5055.0  2.57410E+07  2.43973E+10
      1013     5060.0  2.58775E+07  2.45267E+10
      1014     5065.0  2.59976E+07  2.46567E+10
      1015     5070.0  2.61118E+07  2.47873E+10
      1016     5075.0  2.62134E+07  2.49183E+10
      1017     5080.0  2.64452E+07  2.50506E+10
      1018     5085.0  2.64395E+07  2.51828E+10
      1019     5090.0  2.66316E+07  2.53159E+10
      1020     5095.0  2.67706E+07  2.54498E+10
      1021     5100.0  2.69142E+07  2.55843E+10
      1022     5105.0  2.69269E+07  2.57190E+10
      1023     5110.0  2.71160E+07  2.58546E+10
      1024     5115.0  2.71613E+07  2.59904E+10
      1025     5120.0  2.74000E+07  2.61274E+10
      1026     5125.0  2.74393E+07  2.62646E+10
      1027     5130.0  2.76382E+07  2.64027E+10
      1028     5135.0  2.77162E+07  2.65413E+10
      1029     5140.0  2.78363E+07  2.66805E+10
      1030     5145.0  2.79683E+07  2.68204E+10
      1031     5150.0  2.81480E+07  2.69611E+10
      1032     5155.0  2.82024E+07  2.71021E+10
      1033     5160.0  2.84364E+07  2.72443E+10
      1034     5165.0  2.84878E+07  2.73867E+10
      1035     5170.0  2.86502E+07  2.75300E+10
      1036     5175.0  2.87414E+07  2.76737E+10
      1037     5180.0  2.88545E+07  2.78180E+10
      1038     5185.0  2.90721E+07  2.79633E+10
      1039     5190.0  2.91442E+07  2.81090E+10
      1040     5195.0  2.93233E+07  2.82557E+10
      1041     5200.0  2.93789E+07  2.84025E+10
      1042     5205.0  2.95203E+07  2.85502E+10
      1043     5210.0  2.96593E+07  2.86984E+10
      1044     5215.0  2.97782E+07  2.88473E+10
      1045     5220.0  2.99399E+07  2.89970E+10
      1046     5225.0  3.01109E+07  2.91476E+10
      1047     5230.0  3.02122E+07  2.92987E+10
      1048     5235.0  3.03925E+07  2.94506E+10
      1049     5240.0  3.05696E+07  2.96035E+10
      1050     5245.0  3.05565E+07  2.97562E+10
      1051     5250.0  3.07965E+07  2.99102E+10
      1052     5255.0  3.08910E+07  3.00647E+10
      1053     5260.0  3.10343E+07  3.02199E+10
      1054     5265.0  3.12210E+07  3.03760E+10
      1055     5270.0  3.13408E+07  3.05327E+10
      1056     5275.0  3.14709E+07  3.06900E+10
      1057     5280.0  3.15327E+07  3.08477E+10
      1058     5285.0  3.17295E+07  3.10063E+10
      1059     5290.0  3.18825E+07  3.11657E+10
      1060     5295.0  3.20410E+07  3.13259E+10
      1061     5300.0  3.21602E+07  3.14867E+10
      1062     5305.0  3.24291E+07  3.16489E+10
      1063     5310.0  3.23880E+07  3.18108E+10
      1064     5315.0  3.26360E+07  3.19740E+10
      1065     5320.0  3.27521E+07  3.21378E+10
      1066     5325.0  3.28480E+07  3.23020E+10
      1067     5330.0  3.30526E+07  3.24673E+10
      1068     5335.0  3.32274E+07  3.26334E+10
      1069     5340.0  3.34187E+07  3.28005E+10
      1070     5345.0  3.34883E+07  3.29679E+10
      1071     5350.0  3.36161E+07  3.31360E+10
      1072     5355.0  3.37322E+07  3.33047E+10
      1073     5360.0  3.39118E+07  3.34742E+10
      1074     5365.0  3.40339E+07  3.36444E+10
      1075     5370.0  3.42891E+07  3.38159E+10
      1076     5375.0  3.43826E+07  3.39878E+10
      1077     5380.0  3.45734E+07  3.41606E+10
      1078     5385.0  3.46963E+07  3.43341E+10
      1079     5390.0  3.47619E+07  3.45079E+10
      1080     5395.0  3.51039E+07  3.46835E+10
      1081     5400.0  3.50989E+07  3.48589E+10
      1082     5405.0  3.53679E+07  3.50358E+10
      1083     5410.0  3.55189E+07  3.52134E+10
      1084     5415.0  3.56821E+07  3.53918E+10
      1085     5420.0  3.57615E+07  3.55706E+10
      1086     5425.0  3.58862E+07  3.57500E+10
      1087     5430.0  3.60107E+07  3.59301E+10
      1088     5435.0  3.62637E+07  3.61114E+10
      1089     5440.0  3.63790E+07  3.62933E+10
      1090     5445.0  3.66486E+07  3.64765E+10
      1091     5450.0  3.67943E+07  3.66605E+10
      1092     5455.0  3.68750E+07  3.68449E+10
      1093     5460.0  3.70452E+07  3.70301E+10
      1094     5465.0  3.71810E+07  3.72160E+10
      1095     5470.0  3.73238E+07  3.74026E+10
      1096     5475.0  3.75547E+07  3.75904E+10
      1097     5480.0  3.77658E+07  3.77792E+10
      1098     5485.0  3.79177E+07  3.79688E+10
      1099     5490.0  3.80483E+07  3.81591E+10
      1100     5495.0  3.81592E+07  3.83499E+10
      1101     5500.0  3.83104E+07  3.85414E+10
      1102     5505.0  3.85316E+07  3.87341E+10
      1103     5510.0  3.87037E+07  3.89276E+10
      1104     5515.0  3.89508E+07  3.91223E+10
      1105     5520.0  3.90985E+07  3.93178E+10
      1106     5525.0  3.92149E+07  3.95139E+10
      1107     5530.0  3.94085E+07  3.97110E+10
      1108     5535.0  3.94694E+07  3.99083E+10
      1109     5540.0  3.96764E+07  4.01067E+10
      1110     5545.0  3.98994E+07  4.03062E+10
      1111     5550.0  4.00840E+07  4.05066E+10
      1112     5555.0  4.03296E+07  4.07083E+10
      1113     5560.0  4.04512E+07  4.09105E+10
      1114     5565.0  4.06275E+07  4.11136E+10
      1115     5570.0  4.06680E+07  4.13170E+10
      1116     5575.0  4.09127E+07  4.15215E+10
      1117     5580.0  4.10732E+07  4.17269E+10
      1118     5585.0  4.13281E+07  4.19336E+10
      1119     5590.0  4.15476E+07  4.21413E+10
      1120     5595.0  4.16984E+07  4.23498E+10
      1121     5600.0  4.18540E+07  4.25591E+10
      1122     5605.0  4.19769E+07  4.27689E+10
      1123     5610.0  4.21680E+07  4.29798E+10
      1124     5615.0  4.23177E+07  4.31914E+10
      1125     5620.0  4.25446E+07  4.34041E+10
      1126     5625.0  4.28356E+07  4.36183E+10
      1127     5630.0  4.29137E+07  4.38328E+10
      1128     5635.0  4.31590E+07  4.40486E+10
      1129     5640.0  4.33243E+07  4.42653E+10
      1130     5645.0  4.33687E+07  4.44821E+10
      1131     5650.0  4.36348E+07  4.47003E+10
      1132     5655.0  4.38707E+07  4.49196E+10
      1133     5660.0  4.41153E+07  4.51402E+10
      1134     5665.0  4.42911E+07  4.53617E+10
      1135     5670.0  4.44306E+07  4.55838E+10
      1136     5675.0  4.45958E+07  4.58068E+10
      1137     5680.0  4.47755E+07  4.60307E+10
      1138     5685.0  4.48493E+07  4.62549E+10
      1139     5690.0  4.52966E+07  4.64814E+10
      1140     5695.0  4.52984E+07  4.67079E+10
      1141     5700.0  4.56298E+07  4.69360E+10
      1142     5705.0  4.57833E+07  4.71650E+10
      1143     5710.0  4.59958E+07  4.73949E+10
      1144     5715.0  4.60486E+07  4.76252E+10
      1145     5720.0  4.63129E+07  4.78567E+10
      1146     5725.0  4.64526E+07  4.80890E+10
      1147     5730.0  4.67674E+07  4.83228E+10
      1148     5735.0  4.70131E+07  4.85579E+10
      1149     5740.0  4.71641E+07  4.87937E+10
      1150     5745.0  4.74118E+07  4.90308E+10
      1151     5750.0  4.74622E+07  4.92681E+10
      1152     5755.0  4.77223E+07  4.95067E+10
      1153     5760.0  4.79199E+07  4.97463E+10
      1154     5765.0  4.81698E+07  4.99872E+10
      1155     5770.0  4.84046E+07  5.02292E+10
      1156     5775.0  4.85428E+07  5.04719E+10
      1157     5780.0  4.88077E+07  5.07159E+10
      1158     5785.0  4.88917E+07  5.09604E+10
      1159     5790.0  4.90615E+07  5.12057E+10
      1160     5795.0  4.93220E+07  5.14523E+10
      1161     5800.0  4.96169E+07  5.17004E+10
      1162     5805.0  4.97911E+07  5.19493E+10
      1163     5810.0  5.01287E+07  5.22000E+10
      1164     5815.0  5.01958E+07  5.24510E+10
      1165     5820.0  5.04336E+07  5.27031E+10
      1166     5825.0  5.05635E+07  5.29560E+10
      1167     5830.0  5.08036E+07  5.32100E+10
      1168     5835.0  5.10717E+07  5.34653E+10
      1169     5840.0  5.11911E+07  5.37213E+10
      1170     5845.0  5.15813E+07  5.39792E+10
      1171     5850.0  5.17435E+07  5.42379E+10
      1172     5855.0  5.18808E+07  5.44973E+10
      1173     5860.0  5.20853E+07  5.47577E+10
      1174     5865.0  5.23350E+07  5.50194E+10
      1175     5870.0  5.24453E+07  5.52816E+10
      1176     5875.0  5.28310E+07  5.55458E+10
      1177     5880.0  5.30960E+07  5.58113E+10
      1178     5885.0  5.32216E+07  5.60774E+10
      1179     5890.0  5.35555E+07  5.63452E+10
      1180     5895.0  5.35699E+07  5.66130E+10
      1181     5900.0  5.38765E+07  5.68824E+10
      1182     5905.0  5.40620E+07  5.71527E+10
      1183     5910.0  5.44226E+07  5.74248E+10
      1184     5915.0  5.45977E+07  5.76978E+10
      1185     5920.0  5.47936E+07  5.79718E+10
      1186     5925.0  5.50008E+07  5.82468E+10
      1187     5930.0  5.52230E+07  5.85229E+10
      1188     5935.0  5.54612E+07  5.88002E+10
      1189     5940.0  5.56162E+07  5.90783E+10
      1190     5945.0  5.59461E+07  5.93580E+10
      1191     5950.0  5.61281E+07  5.96387E+10
      1192     5955.0  5.65209E+07  5.99213E+10
      1193     5960.0  5.66106E+07  6.02043E+10
      1194     5965.0  5.69112E+07  6.04889E+10
      1195     5970.0  5.69629E+07  6.07737E+10
      1196     5975.0  5.73274E+07  6.10603E+10
      1197     5980.0  5.75277E+07  6.13480E+10
      1198     5985.0  5.78885E+07  6.16374E+10
      1199     5990.0  5.80518E+07  6.19277E+10
      1200     5995.0  5.83268E+07  6.22193E+10
      1201     6000.0  5.84729E+07  6.25117E+10
      1202     6005.0  5.87826E+07  6.28056E+10
      1203     6010.0  5.89808E+07  6.31005E+10
      1204     6015.0  5.92121E+07  6.33965E+10
      1205     6020.0  5.95015E+07  6.36940E+10
      1206     6025.0  5.98024E+07  6.39931E+10
      1207     6030.0  5.99377E+07  6.42927E+10
      1208     6035.0  6.02571E+07  6.45940E+10
      1209     6040.0  6.04050E+07  6.48961E+10
      1210     6045.0  6.06880E+07  6.51995E+10
      1211     6050.0  6.09633E+07  6.55043E+10
      1212     6055.0  6.11533E+07  6.58101E+10
      1213     6060.0  6.15373E+07  6.61178E+10
      1214     6065.0  6.16749E+07  6.64261E+10
      1215     6070.0  6.19217E+07  6.67357E+10
      1216     6075.0  6.21934E+07  6.70467E+10
      1217     6080.0  6.25157E+07  6.73593E+10
      1218     6085.0  6.26897E+07  6.76727E+10
      1219     6090.0  6.29465E+07  6.79875E+10
      1220     6095.0  6.33043E+07  6.83040E+10
      1221     6100.0  6.35317E+07  6.86217E+10
      1222     6105.0  6.37734E+07  6.89405E+10
      1223     6110.0  6.39539E+07  6.92603E+10
      1224     6115.0  6.42345E+07  6.95815E+10
      1225     6120.0  6.44871E+07  6.99039E+10
      1226     6125.0  6.47829E+07  7.02278E+10
      1227     6130.0  6.50644E+07  7.05531E+10
      1228     6135.0  6.53250E+07  7.08798E+10
      1229     6140.0  6.55107E+07  7.12073E+10
      1230     6145.0  6.58439E+07  7.15365E+10
      1231     6150.0  6.60359E+07  7.18667E+10
      1232     6155.0  6.63554E+07  7.21985E+10
      1233     6160.0  6.66487E+07  7.25317E+10
      1234     6165.0  6.69655E+07  7.28666E+10
      1235     6170.0  6.72597E+07  7.32029E+10
      1236     6175.0  6.74469E+07  7.35401E+10
      1237     6180.0  6.77450E+07  7.38788E+10
      1238     6185.0  6.79420E+07  7.42185E+10
      1239     6190.0  6.82424E+07  7.45597E+10
      1240     6195.0  6.85296E+07  7.49024E+10
      1241     6200.0  6.87703E+07  7.52462E+10
      1242     6205.0  6.91243E+07  7.55919E+10
      1243     6210.0  6.93877E+07  7.59388E+10
      1244     6215.0  6.95983E+07  7.62868E+10
      1245     6220.0  6.99051E+07  7.66363E+10
      1246     6225.0  7.01483E+07  7.69871E+10
      1247     6230.0  7.04647E+07  7.73394E+10
      1248     6235.0  7.08319E+07  7.76935E+10
      1249     6240.0  7.11346E+07  7.80492E+10
      1250     6245.0  7.12656E+07  7.84055E+10
      1251     6250.0  7.17368E+07  7.87642E+10
      1252     6255.0  7.18080E+07  7.91233E+10
      1253     6260.0  7.21422E+07  7.94840E+10
      1254     6265.0  7.24713E+07  7.98463E+10
      1255     6270.0  7.27721E+07  8.02102E+10
      1256     6275.0  7.31136E+07  8.05758E+10
      1257     6280.0  7.33777E+07  8.09426E+10
      1258     6285.0  7.35645E+07  8.13105E+10
      1259     6290.0  7.39229E+07  8.16801E+10
      1260     6295.0  7.41124E+07  8.20506E+10
      1261     6300.0  7.45167E+07  8.24232E+10
      1262     6305.0  7.49188E+07  8.27978E+10
      1263     6310.0  7.50642E+07  8.31731E+10
      1264     6315.0  7.54612E+07  8.35505E+10
      1265     6320.0  7.57259E+07  8.39291E+10
      1266     6325.0  7.60133E+07  8.43091E+10
      1267     6330.0  7.62430E+07  8.46904E+10
      1268     6335.0  7.66004E+07  8.50734E+10
      1269     6340.0  7.69700E+07  8.54582E+10
      1270     6345.0  7.72325E+07  8.58444E+10
      1271     6350.0  7.75226E+07  8.62320E+10
      1272     6355.0  7.78325E+07  8.66212E+10
      1273     6360.0  7.81291E+07  8.70118E+10
      1274     6365.0  7.82804E+07  8.74032E+10
      1275     6370.0  7.88199E+07  8.77973E+10
      1276     6375.0  7.90343E+07  8.81925E+10
      1277     6380.0  7.94550E+07  8.85897E+10
      1278     6385.0  7.96899E+07  8.89882E+10
      1279     6390.0  8.00146E+07  8.93883E+10
      1280     6395.0  8.03408E+07  8.97900E+10
      1281     6400.0  8.05240E+07  9.01926E+10
      1282     6405.0  8.09506E+07  9.05973E+10
      1283     6410.0  8.13233E+07  9.10040E+10
      1284     6415.0  8.15762E+07  9.14118E+10
      1285     6420.0  8.20628E+07  9.18222E+10
      1286     6425.0  8.21984E+07  9.22331E+10
      1287     6430.0  8.24839E+07  9.26456E+10
      1288     6435.0  8.28231E+07  9.30597E+10
      1289     6440.0  8.31025E+07  9.34752E+10
      1290     6445.0  8.35704E+07  9.38930E+10
      1291     6450.0  8.38940E+07  9.43125E+10
      1292     6455.0  8.41377E+07  9.47332E+10
      1293     6460.0  8.45345E+07  9.51559E+10
      1294     6465.0  8.48213E+07  9.55800E+10
      1295     6470.0  8.51563E+07  9.60058E+10
      1296     6475.0  8.54218E+07  9.64329E+10
      1297     6480.0  8.58740E+07  9.68622E+10
      1298     6485.0  8.61445E+07  9.72930E+10
      1299     6490.0  8.65943E+07  9.77259E+10
      1300     6495.0  8.68677E+07  9.81603E+10
      1301     6500.0  8.71816E+07  9.85962E+10
      1302     6505.0  8.73634E+07  9.90330E+10
      1303     6510.0  8.78153E+07  9.94721E+10
      1304     6515.0  8.82461E+07  9.99133E+10
      1305     6520.0  8.84519E+07  1.00356E+11
      1306     6525.0  8.90255E+07  1.00801E+11
      1307     6530.0  8.92477E+07  1.01247E+11
      1308     6535.0  8.95790E+07  1.01695E+11
      1309     6540.0  8.97920E+07  1.02144E+11
      1310     6545.0  9.02407E+07  1.02595E+11
      1311     6550.0  9.05139E+07  1.03048E+11
      1312     6555.0  9.10072E+07  1.03503E+11
      1313     6560.0  9.13430E+07  1.03959E+11
      1314     6565.0  9.18312E+07  1.04418E+11
      1315     6570.0  9.18528E+07  1.04878E+11
      1316     6575.0  9.24000E+07  1.05340E+11
      1317     6580.0  9.26787E+07  1.05803E+11
      1318     6585.0  9.29590E+07  1.06268E+11
      1319     6590.0  9.35085E+07  1.06735E+11
      1320     6595.0  9.38725E+07  1.07205E+11
      1321     6600.0  9.42287E+07  1.07676E+11
      1322     6605.0  9.45382E+07  1.08149E+11
      1323     6610.0  9.49433E+07  1.08623E+11
      1324     6615.0  9.50655E+07  1.09099E+11
      1325     6620.0  9.55596E+07  1.09577E+11
      1326     6625.0  9.59964E+07  1.10056E+11
      1327     6630.0  9.63007E+07  1.10538E+11
      1328     6635.0  9.68458E+07  1.11022E+11
      1329     6640.0  9.71126E+07  1.11508E+11
      1330     6645.0  9.74375E+07  1.11995E+11
      1331     6650.0  9.77355E+07  1.12484E+11
      1332     6655.0  9.82255E+07  1.12975E+11
      1333     6660.0  9.85539E+07  1.13468E+11
      1334     6665.0  9.90188E+07  1.13963E+11
      1335     6670.0  9.94513E+07  1.14460E+11
      1336     6675.0  9.98220E+07  1.14959E+11
      1337     6680.0  1.00002E+08  1.15459E+11
      1338     6685.0  1.00469E+08  1.15961E+11
      1339     6690.0  1.00768E+08  1.16465E+11
      1340     6695.0  1.01172E+08  1.16971E+11
      1341     6700.0  1.01607E+08  1.17479E+11
      1342     6705.0  1.02096E+08  1.17990E+11
      1343     6710.0  1.02424E+08  1.18502E+11
      1344     6715.0  1.02754E+08  1.19015E+11
      1345     6720.0  1.03112E+08  1.19531E+11
      1346     6725.0  1.03496E+08  1.20049E+11
      1347     6730.0  1.03830E+08  1.20568E+11
      1348     6735.0  1.04432E+08  1.21090E+11
      1349     6740.0  1.04839E+08  1.21614E+11
      1350     6745.0  1.05343E+08  1.22141E+11
      1351     6750.0  1.05521E+08  1.22668E+11
      1352     6755.0  1.05970E+08  1.23198E+11
      1353     6760.0  1.06256E+08  1.23729E+11
      1354     6765.0  1.06805E+08  1.24263E+11
      1355     6770.0  1.07111E+08  1.24799E+11
      1356     6775.0  1.07565E+08  1.25337E+11
      1357     6780.0  1.08077E+08  1.25877E+11
      1358     6785.0  1.08348E+08  1.26419E+11
      1359     6790.0  1.08824E+08  1.26963E+11
      1360     6795.0  1.09096E+08  1.27509E+11
      1361     6800.0  1.09516E+08  1.28056E+11
      1362     6805.0  1.09995E+08  1.28606E+11
      1363     6810.0  1.10558E+08  1.29159E+11
      1364     6815.0  1.10796E+08  1.29713E+11
      1365     6820.0  1.11387E+08  1.30270E+11
      1366     6825.0  1.11526E+08  1.30827E+11
      1367     6830.0  1.12074E+08  1.31388E+11
      1368     6835.0  1.12435E+08  1.31950E+11
      1369     6840.0  1.12915E+08  1.32515E+11
      1370     6845.0  1.13357E+08  1.33081E+11
      1371     6850.0  1.13979E+08  1.33651E+11
      1372     6855.0  1.14249E+08  1.34223E+11
      1373     6860.0  1.14704E+08  1.34796E+11
      1374     6865.0  1.15007E+08  1.35371E+11
      1375     6870.0  1.15374E+08  1.35948E+11
      1376     6875.0  1.15923E+08  1.36528E+11
      1377     6880.0  1.16424E+08  1.37110E+11
      1378     6885.0  1.16929E+08  1.37694E+11
      1379     6890.0  1.17258E+08  1.38281E+11
      1380     6895.0  1.17645E+08  1.38869E+11
      1381     6900.0  1.18195E+08  1.39460E+11
      1382     6905.0  1.18400E+08  1.40052E+11
      1383     6910.0  1.19013E+08  1.40647E+11
      1384     6915.0  1.19567E+08  1.41245E+11
      1385     6920.0  1.19841E+08  1.41844E+11
      1386     6925.0  1.20335E+08  1.42446E+11
      1387     6930.0  1.20831E+08  1.43050E+11
      1388     6935.0  1.21172E+08  1.43656E+11
      1389     6940.0  1.21581E+08  1.44264E+11
      1390     6945.0  1.22027E+08  1.44874E+11
      1391     6950.0  1.22668E+08  1.45487E+11
      1392     6955.0  1.22973E+08  1.46102E+11
      1393     6960.0  1.23526E+08  1.46719E+11
      1394     6965.0  1.24074E+08  1.47340E+11
      1395     6970.0  1.24382E+08  1.47962E+11
      1396     6975.0  1.24736E+08  1.48585E+11
      1397     6980.0  1.25343E+08  1.49212E+11
      1398     6985.0  1.25754E+08  1.49841E+11
      1399     6990.0  1.26329E+08  1.50473E+11
      1400     6995.0  1.26870E+08  1.51107E+11
      1401     7000.0  1.27182E+08  1.51743E+11
      1402     7005.0  1.27618E+08  1.52381E+11
      1403     7010.0  1.28209E+08  1.53022E+11
      1404     7015.0  1.28437E+08  1.53664E+11
      1405     7020.0  1.29178E+08  1.54310E+11
      1406     7025.0  1.29541E+08  1.54958E+11
      1407     7030.0  1.30052E+08  1.55608E+11
      1408     7035.0  1.30503E+08  1.56261E+11
      1409     7040.0  1.31016E+08  1.56916E+11
      1410     7045.0  1.31431E+08  1.57573E+11
      1411     7050.0  1.31868E+08  1.58232E+11
      1412     7055.0  1.32430E+08  1.58894E+11
      1413     7060.0  1.32962E+08  1.59559E+11
      1414     7065.0  1.33362E+08  1.60226E+11
      1415     7070.0  1.33958E+08  1.60896E+11
      1416     7075.0  1.34416E+08  1.61568E+11
      1417     7080.0  1.34782E+08  1.62242E+11
      1418     7085.0  1.35481E+08  1.62919E+11
      1419     7090.0  1.35773E+08  1.63598E+11
      1420     7095.0  1.36355E+08  1.64280E+11
      1421     7100.0  1.36782E+08  1.64964E+11
      1422     7105.0  1.37632E+08  1.65652E+11
      1423     7110.0  1.37833E+08  1.66341E+11
      1424     7115.0  1.38343E+08  1.67033E+11
      1425     7120.0  1.38825E+08  1.67727E+11
      1426     7125.0  1.39357E+08  1.68424E+11
      1427     7130.0  1.39801E+08  1.69123E+11
      1428     7135.0  1.40565E+08  1.69825E+11
      1429     7140.0  1.40928E+08  1.70530E+11
      1430     7145.0  1.41250E+08  1.71236E+11
      1431     7150.0  1.41909E+08  1.71946E+11
      1432     7155.0  1.42368E+08  1.72658E+11
      1433     7160.0  1.42957E+08  1.73372E+11
      1434     7165.0  1.43588E+08  1.74090E+11
      1435     7170.0  1.44155E+08  1.74811E+11
      1436     7175.0  1.44541E+08  1.75534E+11
      1437     7180.0  1.45128E+08  1.76260E+11
      1438     7185.0  1.45517E+08  1.76987E+11
      1439     7190.0  1.46097E+08  1.77718E+11
      1440     7195.0  1.46533E+08  1.78450E+11
      1441     7200.0  1.47070E+08  1.79186E+11
      1442     7205.0  1.47714E+08  1.79924E+11
      1443     7210.0  1.48235E+08  1.80665E+11
      1444     7215.0  1.48847E+08  1.81410E+11
      1445     7220.0  1.49283E+08  1.82156E+11
      1446     7225.0  1.49804E+08  1.82905E+11
      1447     7230.0  1.50296E+08  1.83657E+11
      1448     7235.0  1.51018E+08  1.84412E+11
      1449     7240.0  1.51471E+08  1.85169E+11
      1450     7245.0  1.52081E+08  1.85929E+11
      1451     7250.0  1.52554E+08  1.86692E+11
      1452     7255.0  1.53149E+08  1.87458E+11
      1453     7260.0  1.53570E+08  1.88226E+11
      1454     7265.0  1.54195E+08  1.88997E+11
      1455     7270.0  1.54764E+08  1.89771E+11
      1456     7275.0  1.55423E+08  1.90548E+11
      1457     7280.0  1.55903E+08  1.91327E+11
      1458     7285.0  1.56488E+08  1.92110E+11
      1459     7290.0  1.56847E+08  1.92894E+11
      1460     7295.0  1.57439E+08  1.93681E+11
      1461     7300.0  1.58072E+08  1.94471E+11
      1462     7305.0  1.58765E+08  1.95265E+11
      1463     7310.0  1.59174E+08  1.96061E+11
      1464     7315.0  1.59984E+08  1.96861E+11
      1465     7320.0  1.60380E+08  1.97663E+11
      1466     7325.0  1.61090E+08  1.98468E+11
      1467     7330.0  1.61450E+08  1.99276E+11
      1468     7335.0  1.62153E+08  2.00086E+11
      1469     7340.0  1.62615E+08  2.00899E+11
      1470     7345.0  1.63289E+08  2.01716E+11
      1471     7350.0  1.63876E+08  2.02535E+11
      1472     7355.0  1.64505E+08  2.03358E+11
      1473     7360.0  1.65015E+08  2.04183E+11
      1474     7365.0  1.65596E+08  2.05011E+11
      1475     7370.0  1.66167E+08  2.05842E+11
      1476     7375.0  1.66683E+08  2.06675E+11
      1477     7380.0  1.67663E+08  2.07513E+11
      1478     7385.0  1.67894E+08  2.08353E+11
      1479     7390.0  1.68735E+08  2.09197E+11
      1480     7395.0  1.69111E+08  2.10042E+11
      1481     7400.0  1.69610E+08  2.10890E+11
      1482     7405.0  1.70333E+08  2.11742E+11
      1483     7410.0  1.70998E+08  2.12597E+11
      1484     7415.0  1.71584E+08  2.13455E+11
      1485     7420.0  1.72281E+08  2.14316E+11
      1486     7425.0  1.72954E+08  2.15181E+11
      1487     7430.0  1.73513E+08  2.16048E+11
      1488     7435.0  1.73917E+08  2.16918E+11
      1489     7440.0  1.74532E+08  2.17791E+11
      1490     7445.0  1.75346E+08  2.18667E+11
      1491     7450.0  1.75838E+08  2.19547E+11
      1492     7455.0  1.76571E+08  2.20429E+11
      1493     7460.0  1.77254E+08  2.21316E+11
      1494     7465.0  1.77647E+08  2.22204E+11
      1495     7470.0  1.78443E+08  2.23096E+11
      1496     7475.0  1.78894E+08  2.23991E+11
      1497     7480.0  1.79636E+08  2.24889E+11
      1498     7485.0  1.80147E+08  2.25790E+11
      1499     7490.0  1.81069E+08  2.26695E+11
      1500     7495.0  1.81605E+08  2.27603E+11
      1501     7500.0  1.82264E+08  2.28514E+11
      1502     7505.0  1.82723E+08  2.29428E+11
      1503     7510.0  1.83469E+08  2.30345E+11
      1504     7515.0  1.83998E+08  2.31265E+11
      1505     7520.0  1.84617E+08  2.32188E+11
      1506     7525.0  1.85647E+08  2.33117E+11
      1507     7530.0  1.86017E+08  2.34047E+11
      1508     7535.0  1.86837E+08  2.34981E+11
      1509     7540.0  1.87396E+08  2.35918E+11
      1510     7545.0  1.87727E+08  2.36856E+11
      1511     7550.0  1.88802E+08  2.37800E+11
      1512     7555.0  1.89169E+08  2.38746E+11
      1513     7560.0  1.90039E+08  2.39696E+11
      1514     7565.0  1.90735E+08  2.40650E+11
      1515     7570.0  1.91373E+08  2.41607E+11
      1516     7575.0  1.91863E+08  2.42566E+11
      1517     7580.0  1.92886E+08  2.43531E+11
      1518     7585.0  1.93038E+08  2.44496E+11
      1519     7590.0  1.94036E+08  2.45466E+11
      1520     7595.0  1.94584E+08  2.46439E+11
      1521     7600.0  1.95591E+08  2.47417E+11
      1522     7605.0  1.96066E+08  2.48397E+11
      1523     7610.0  1.96749E+08  2.49381E+11
      1524     7615.0  1.97423E+08  2.50368E+11
      1525     7620.0  1.97969E+08  2.51358E+11
      1526     7625.0  1.98660E+08  2.52351E+11
      1527     7630.0  1.99447E+08  2.53349E+11
      1528     7635.0  2.00392E+08  2.54351E+11
      1529     7640.0  2.00792E+08  2.55354E+11
      1530     7645.0  2.01771E+08  2.56363E+11
      1531     7650.0  2.02161E+08  2.57374E+11
      1532     7655.0  2.02880E+08  2.58389E+11
      1533     7660.0  2.03522E+08  2.59406E+11
      1534     7665.0  2.04303E+08  2.60428E+11
      1535     7670.0  2.05145E+08  2.61453E+11
      1536     7675.0  2.05886E+08  2.62483E+11
      1537     7680.0  2.06537E+08  2.63516E+11
      1538     7685.0  2.07306E+08  2.64552E+11
      1539     7690.0  2.07733E+08  2.65591E+11
      1540     7695.0  2.08605E+08  2.66634E+11
      1541     7700.0  2.09296E+08  2.67680E+11
      1542     7705.0  2.10150E+08  2.68731E+11
      1543     7710.0  2.10794E+08  2.69785E+11
      1544     7715.0  2.11577E+08  2.70843E+11
      1545     7720.0  2.12148E+08  2.71904E+11
      1546     7725.0  2.12992E+08  2.72969E+11
      1547     7730.0  2.13504E+08  2.74036E+11
      1548     7735.0  2.14490E+08  2.75108E+11
      1549     7740.0  2.15279E+08  2.76185E+11
      1550     7745.0  2.16150E+08  2.77266E+11
      1551     7750.0  2.16933E+08  2.78350E+11
      1552     7755.0  2.17451E+08  2.79438E+11
      1553     7760.0  2.18036E+08  2.80528E+11
      1554     7765.0  2.18721E+08  2.81621E+11
      1555     7770.0  2.19568E+08  2.82719E+11
      1556     7775.0  2.20398E+08  2.83821E+11
      1557     7780.0  2.21230E+08  2.84927E+11
      1558     7785.0  2.22011E+08  2.86037E+11
      1559     7790.0  2.22848E+08  2.87152E+11
      1560     7795.0  2.23375E+08  2.88268E+11
      1561     7800.0  2.24136E+08  2.89389E+11
      1562     7805.0  2.24890E+08  2.90514E+11
      1563     7810.0  2.25690E+08  2.91642E+11
      1564     7815.0  2.26593E+08  2.92775E+11
      1565     7820.0  2.27386E+08  2.93912E+11
      1566     7825.0  2.28075E+08  2.95052E+11
      1567     7830.0  2.28778E+08  2.96196E+11
      1568     7835.0  2.29573E+08  2.97344E+11
      1569     7840.0  2.30301E+08  2.98496E+11
      1570     7845.0  2.31200E+08  2.99652E+11
      1571     7850.0  2.32000E+08  3.00812E+11
      1572     7855.0  2.33049E+08  3.01977E+11
      1573     7860.0  2.33565E+08  3.03145E+11
      1574     7865.0  2.34468E+08  3.04317E+11
      1575     7870.0  2.34946E+08  3.05492E+11
      1576     7875.0  2.35879E+08  3.06671E+11
      1577     7880.0  2.36605E+08  3.07854E+11
      1578     7885.0  2.37801E+08  3.09043E+11
      1579     7890.0  2.38237E+08  3.10234E+11
      1580     7895.0  2.39418E+08  3.11431E+11
      1581     7900.0  2.39989E+08  3.12631E+11
      1582     7905.0  2.40696E+08  3.13835E+11
      1583     7910.0  2.41521E+08  3.15042E+11
      1584     7915.0  2.42339E+08  3.16254E+11
      1585     7920.0  2.43248E+08  3.17470E+11
      1586     7925.0  2.43987E+08  3.18690E+11
      1587     7930.0  2.45056E+08  3.19916E+11
      1588     7935.0  2.45804E+08  3.21145E+11
      1589     7940.0  2.46575E+08  3.22378E+11
      1590     7945.0  2.47207E+08  3.23614E+11
      1591     7950.0  2.48251E+08  3.24855E+11
      1592     7955.0  2.48901E+08  3.26099E+11
      1593     7960.0  2.49843E+08  3.27349E+11
      1594     7965.0  2.50923E+08  3.28603E+11
      1595     7970.0  2.51666E+08  3.29861E+11
      1596     7975.0  2.52213E+08  3.31123E+11
      1597     7980.0  2.53259E+08  3.32389E+11
      1598     7985.0  2.53909E+08  3.33658E+11
      1599     7990.0  2.55061E+08  3.34934E+11
      1600     7995.0  2.55889E+08  3.36213E+11
      1601     8000.0  2.56781E+08  3.37497E+11
      1602     8005.0  2.57710E+08  3.38786E+11
      1603     8010.0  2.58401E+08  3.40078E+11
      1604     8015.0  2.59167E+08  3.41373E+11
      1605     8020.0  2.60323E+08  3.42675E+11
      1606     8025.0  2.60765E+08  3.43979E+11
      1607     8030.0  2.61960E+08  3.45289E+11
      1608     8035.0  2.62874E+08  3.46603E+11
      1609     8040.0  2.63673E+08  3.47921E+11
      1610     8045.0  2.64682E+08  3.49245E+11
      1611     8050.0  2.65238E+08  3.50571E+11
      1612     8055.0  2.66341E+08  3.51903E+11
      1613     8060.0  2.66840E+08  3.53237E+11
      1614     8065.0  2.68112E+08  3.54577E+11
      1615     8070.0  2.69020E+08  3.55923E+11
      1616     8075.0  2.69976E+08  3.57272E+11
      1617     8080.0  2.70678E+08  3.58626E+11
      1618     8085.0  2.71766E+08  3.59985E+11
      1619     8090.0  2.72507E+08  3.61347E+11
      1620     8095.0  2.73385E+08  3.62714E+11
      1621     8100.0  2.74329E+08  3.64086E+11
      1622     8105.0  2.75344E+08  3.65462E+11
      1623     8110.0  2.76684E+08  3.66846E+11
      1624     8115.0  2.76980E+08  3.68231E+11
      1625     8120.0  2.78230E+08  3.69622E+11
      1626     8125.0  2.78804E+08  3.71016E+11
      1627     8130.0  2.79796E+08  3.72415E+11
      1628     8135.0  2.80769E+08  3.73819E+11
      1629     8140.0  2.82033E+08  3.75229E+11
      1630     8145.0  2.82494E+08  3.76641E+11
      1631     8150.0  2.83787E+08  3.78060E+11
      1632     8155.0  2.84492E+08  3.79483E+11
      1633     8160.0  2.85714E+08  3.80911E+11
      1634     8165.0  2.86417E+08  3.82343E+11
      1635     8170.0  2.87337E+08  3.83780E+11
      1636     8175.0  2.88465E+08  3.85222E+11
      1637     8180.0  2.89262E+08  3.86669E+11
      1638     8185.0  2.90232E+08  3.88120E+11
      1639     8190.0  2.91481E+08  3.89577E+11
      1640     8195.0  2.91919E+08  3.91037E+11
      1641     8200.0  2.92961E+08  3.92502E+11
      1642     8205.0  2.94084E+08  3.93972E+11
      1643     8210.0  2.95147E+08  3.95448E+11
      1644     8215.0  2.96230E+08  3.96929E+11
      1645     8220.0  2.97141E+08  3.98415E+11
      1646     8225.0  2.98110E+08  3.99905E+11
      1647     8230.0  2.98898E+08  4.01400E+11
      1648     8235.0  2.99913E+08  4.02899E+11
      1649     8240.0  3.00907E+08  4.04404E+11
      1650     8245.0  3.02130E+08  4.05915E+11
      1651     8250.0  3.02804E+08  4.07429E+11
      1652     8255.0  3.04112E+08  4.08949E+11
      1653     8260.0  3.04924E+08  4.10474E+11
      1654     8265.0  3.06014E+08  4.12004E+11
      1655     8270.0  3.07009E+08  4.13539E+11
      1656     8275.0  3.07838E+08  4.15078E+11
      1657     8280.0  3.09061E+08  4.16623E+11
      1658     8285.0  3.10000E+08  4.18173E+11
      1659     8290.0  3.10815E+08  4.19727E+11
      1660     8295.0  3.12009E+08  4.21287E+11
      1661     8300.0  3.13050E+08  4.22853E+11
      1662     8305.0  3.13851E+08  4.24422E+11
      1663     8310.0  3.15085E+08  4.25997E+11
      1664     8315.0  3.16145E+08  4.27578E+11
      1665     8320.0  3.17156E+08  4.29164E+11
      1666     8325.0  3.18236E+08  4.30755E+11
      1667     8330.0  3.19206E+08  4.32351E+11
      1668     8335.0  3.20312E+08  4.33953E+11
      1669     8340.0  3.21095E+08  4.35558E+11
      1670     8345.0  3.22401E+08  4.37170E+11
      1671     8350.0  3.23405E+08  4.38787E+11
      1672     8355.0  3.24383E+08  4.40409E+11
      1673     8360.0  3.25636E+08  4.42037E+11
      1674     8365.0  3.26730E+08  4.43671E+11
      1675     8370.0  3.27512E+08  4.45308E+11
      1676     8375.0  3.28463E+08  4.46951E+11
      1677     8380.0  3.29991E+08  4.48601E+11
      1678     8385.0  3.30599E+08  4.50254E+11
      1679     8390.0  3.32028E+08  4.51914E+11
      1680     8395.0  3.33153E+08  4.53580E+11
      1681     8400.0  3.33705E+08  4.55248E+11
      1682     8405.0  3.35302E+08  4.56925E+11
      1683     8410.0  3.36097E+08  4.58605E+11
      1684     8415.0  3.37468E+08  4.60293E+11
      1685     8420.0  3.38182E+08  4.61983E+11
      1686     8425.0  3.39750E+08  4.63682E+11
      1687     8430.0  3.40393E+08  4.65384E+11
      1688     8435.0  3.41822E+08  4.67093E+11
      1689     8440.0  3.42678E+08  4.68807E+11
      1690     8445.0  3.44013E+08  4.70527E+11
      1691     8450.0  3.44860E+08  4.72251E+11
      1692     8455.0  3.46277E+08  4.73982E+11
      1693     8460.0  3.47292E+08  4.75719E+11
      1694     8465.0  3.48337E+08  4.77461E+11
      1695     8470.0  3.49557E+08  4.79208E+11
      1696     8475.0  3.50509E+08  4.80961E+11
      1697     8480.0  3.51794E+08  4.82720E+11
      1698     8485.0  3.52657E+08  4.84483E+11
      1699     8490.0  3.54068E+08  4.86253E+11
      1700     8495.0  3.55196E+08  4.88029E+11
      1701     8500.0  3.56298E+08  4.89811E+11
      1702     8505.0  3.57497E+08  4.91598E+11
      1703     8510.0  3.58626E+08  4.93392E+11
      1704     8515.0  3.59725E+08  4.95190E+11
      1705     8520.0  3.60755E+08  4.96994E+11
      1706     8525.0  3.62240E+08  4.98805E+11
      1707     8530.0  3.63154E+08  5.00621E+11
      1708     8535.0  3.64531E+08  5.02444E+11
      1709     8540.0  3.65612E+08  5.04272E+11
      1710     8545.0  3.66315E+08  5.06103E+11
      1711     8550.0  3.68092E+08  5.07944E+11
      1712     8555.0  3.68573E+08  5.09787E+11
      1713     8560.0  3.70472E+08  5.11639E+11
      1714     8565.0  3.71387E+08  5.13496E+11
      1715     8570.0  3.72592E+08  5.15359E+11
      1716     8575.0  3.73849E+08  5.17228E+11
      1717     8580.0  3.75191E+08  5.19104E+11
      1718     8585.0  3.76152E+08  5.20985E+11
      1719     8590.0  3.77360E+08  5.22872E+11
      1720     8595.0  3.78594E+08  5.24765E+11
      1721     8600.0  3.79832E+08  5.26664E+11
      1722     8605.0  3.81193E+08  5.28570E+11
      1723     8610.0  3.82068E+08  5.30480E+11
      1724     8615.0  3.83762E+08  5.32399E+11
      1725     8620.0  3.84292E+08  5.34320E+11
      1726     8625.0  3.85920E+08  5.36250E+11
      1727     8630.0  3.86924E+08  5.38184E+11
      1728     8635.0  3.88461E+08  5.40127E+11
      1729     8640.0  3.89606E+08  5.42075E+11
      1730     8645.0  3.90945E+08  5.44030E+11
      1731     8650.0  3.92048E+08  5.45990E+11
      1732     8655.0  3.93228E+08  5.47956E+11
      1733     8660.0  3.94397E+08  5.49928E+11
      1734     8665.0  3.95613E+08  5.51906E+11
      1735     8670.0  3.97332E+08  5.53893E+11
      1736     8675.0  3.98062E+08  5.55883E+11
      1737     8680.0  3.99850E+08  5.57882E+11
      1738     8685.0  4.01055E+08  5.59887E+11
      1739     8690.0  4.01925E+08  5.61897E+11
      1740     8695.0  4.03232E+08  5.63913E+11
      1741     8700.0  4.04689E+08  5.65937E+11
      1742     8705.0  4.05928E+08  5.67966E+11
      1743     8710.0  4.07312E+08  5.70003E+11
      1744     8715.0  4.08511E+08  5.72045E+11
      1745     8720.0  4.09924E+08  5.74095E+11
      1746     8725.0  4.10715E+08  5.76149E+11
      1747     8730.0  4.12352E+08  5.78210E+11
      1748     8735.0  4.13631E+08  5.80279E+11
      1749     8740.0  4.14951E+08  5.82353E+11
      1750     8745.0  4.16114E+08  5.84434E+11
      1751     8750.0  4.18209E+08  5.86525E+11
      1752     8755.0  4.18859E+08  5.88619E+11
      1753     8760.0  4.20246E+08  5.90720E+11
      1754     8765.0  4.21291E+08  5.92827E+11
      1755     8770.0  4.22712E+08  5.94940E+11
      1756     8775.0  4.24214E+08  5.97062E+11
      1757     8780.0  4.25613E+08  5.99190E+11
      1758     8785.0  4.27035E+08  6.01325E+11
      1759     8790.0  4.28225E+08  6.03466E+11
      1760     8795.0  4.29650E+08  6.05614E+11
      1761     8800.0  4.30770E+08  6.07768E+11
      1762     8805.0  4.32072E+08  6.09928E+11
      1763     8810.0  4.33506E+08  6.12096E+11
      1764     8815.0  4.35053E+08  6.14271E+11
      1765     8820.0  4.36230E+08  6.16452E+11
      1766     8825.0  4.38067E+08  6.18643E+11
      1767     8830.0  4.39066E+08  6.20838E+11
      1768     8835.0  4.40209E+08  6.23039E+11
      1769     8840.0  4.41732E+08  6.25248E+11
      1770     8845.0  4.42944E+08  6.27462E+11
      1771     8850.0  4.44476E+08  6.29685E+11
      1772     8855.0  4.46306E+08  6.31916E+11
      1773     8860.0  4.47509E+08  6.34154E+11
      1774     8865.0  4.48709E+08  6.36397E+11
      1775     8870.0  4.50043E+08  6.38648E+11
      1776     8875.0  4.51624E+08  6.40906E+11
      1777     8880.0  4.52782E+08  6.43170E+11
      1778     8885.0  4.54432E+08  6.45442E+11
      1779     8890.0  4.55849E+08  6.47721E+11
      1780     8895.0  4.57338E+08  6.50008E+11
      1781     8900.0  4.58596E+08  6.52301E+11
      1782     8905.0  4.60038E+08  6.54601E+11
      1783     8910.0  4.61566E+08  6.56909E+11
      1784     8915.0  4.62238E+08  6.59220E+11
      1785     8920.0  4.64660E+08  6.61543E+11
      1786     8925.0  4.65501E+08  6.63871E+11
      1787     8930.0  4.67407E+08  6.66208E+11
      1788     8935.0  4.68874E+08  6.68552E+11
      1789     8940.0  4.70235E+08  6.70903E+11
      1790     8945.0  4.71543E+08  6.73261E+11
      1791     8950.0  4.72886E+08  6.75625E+11
      1792     8955.0  4.74316E+08  6.77997E+11
      1793     8960.0  4.75914E+08  6.80377E+11
      1794     8965.0  4.77686E+08  6.82765E+11
      1795     8970.0  4.78899E+08  6.85160E+11
      1796     8975.0  4.80503E+08  6.87562E+11
      1797     8980.0  4.81790E+08  6.89971E+11
      1798     8985.0  4.83288E+08  6.92387E+11
      1799     8990.0  4.84627E+08  6.94811E+11
      1800     8995.0  4.86569E+08  6.97243E+11
      1801     9000.0  4.87826E+08  6.99683E+11
      1802     9005.0  4.89859E+08  7.02132E+11
      1803     9010.0  4.90750E+08  7.04586E+11
      1804     9015.0  4.92543E+08  7.07048E+11
      1805     9020.0  4.93768E+08  7.09517E+11
      1806     9025.0  4.95332E+08  7.11994E+11
      1807     9030.0  4.96912E+08  7.14478E+11
      1808     9035.0  4.98415E+08  7.16970E+11
      1809     9040.0  4.99968E+08  7.19470E+11
      1810     9045.0  5.01836E+08  7.21979E+11
      1811     9050.0  5.02886E+08  7.24494E+11
      1812     9055.0  5.04825E+08  7.27018E+11
      1813     9060.0  5.05751E+08  7.29547E+11
      1814     9065.0  5.07453E+08  7.32084E+11
      1815     9070.0  5.09466E+08  7.34631E+11
      1816     9075.0  5.10997E+08  7.37186E+11
      1817     9080.0  5.12657E+08  7.39750E+11
      1818     9085.0  5.13929E+08  7.42319E+11
      1819     9090.0  5.15653E+08  7.44898E+11
      1820     9095.0  5.16868E+08  7.47482E+11
      1821     9100.0  5.18747E+08  7.50076E+11
      1822     9105.0  5.20246E+08  7.52677E+11
      1823     9110.0  5.22243E+08  7.55288E+11
      1824     9115.0  5.23680E+08  7.57906E+11
      1825     9120.0  5.25318E+08  7.60533E+11
      1826     9125.0  5.26704E+08  7.63167E+11
      1827     9130.0  5.27946E+08  7.65806E+11
      1828     9135.0  5.29735E+08  7.68455E+11
      1829     9140.0  5.31487E+08  7.71112E+11
      1830     9145.0  5.33307E+08  7.73779E+11
      1831     9150.0  5.34787E+08  7.76453E+11
      1832     9155.0  5.36607E+08  7.79136E+11
      1833     9160.0  5.38085E+08  7.81826E+11
      1834     9165.0  5.39685E+08  7.84525E+11
      1835     9170.0  5.40944E+08  7.87230E+11
      1836     9175.0  5.43044E+08  7.89945E+11
      1837     9180.0  5.44555E+08  7.92667E+11
      1838     9185.0  5.46447E+08  7.95400E+11
      1839     9190.0  5.48303E+08  7.98141E+11
      1840     9195.0  5.49627E+08  8.00889E+11
      1841     9200.0  5.51067E+08  8.03645E+11
      1842     9205.0  5.52586E+08  8.06408E+11
      1843     9210.0  5.54591E+08  8.09181E+11
      1844     9215.0  5.56549E+08  8.11963E+11
      1845     9220.0  5.57709E+08  8.14752E+11
      1846     9225.0  5.60238E+08  8.17553E+11
      1847     9230.0  5.61410E+08  8.20360E+11
      1848     9235.0  5.62761E+08  8.23174E+11
      1849     9240.0  5.64885E+08  8.25998E+11
      1850     9245.0  5.66489E+08  8.28831E+11
      1851     9250.0  5.68030E+08  8.31671E+11
      1852     9255.0  5.69900E+08  8.34520E+11
      1853     9260.0  5.72062E+08  8.37381E+11
      1854     9265.0  5.73426E+08  8.40248E+11
      1855     9270.0  5.75190E+08  8.43124E+11
      1856     9275.0  5.76554E+08  8.46007E+11
      1857     9280.0  5.78887E+08  8.48901E+11
      1858     9285.0  5.79554E+08  8.51799E+11
      1859     9290.0  5.82455E+08  8.54711E+11
      1860     9295.0  5.83877E+08  8.57630E+11
      1861     9300.0  5.85606E+08  8.60559E+11
      1862     9305.0  5.87382E+08  8.63495E+11
      1863     9310.0  5.89156E+08  8.66441E+11
      1864     9315.0  5.90553E+08  8.69394E+11
      1865     9320.0  5.92663E+08  8.72357E+11
      1866     9325.0  5.94499E+08  8.75330E+11
      1867     9330.0  5.96110E+08  8.78310E+11
      1868     9335.0  5.98233E+08  8.81301E+11
      1869     9340.0  5.99610E+08  8.84300E+11
      1870     9345.0  6.01713E+08  8.87308E+11
      1871     9350.0  6.03432E+08  8.90325E+11
      1872     9355.0  6.04903E+08  8.93350E+11
      1873     9360.0  6.07292E+08  8.96386E+11
      1874     9365.0  6.09031E+08  8.99431E+11
      1875     9370.0  6.11030E+08  9.02487E+11
      1876     9375.0  6.12326E+08  9.05548E+11
      1877     9380.0  6.14475E+08  9.08621E+11
      1878     9385.0  6.16047E+08  9.11701E+11
      1879     9390.0  6.17987E+08  9.14791E+11
      1880     9395.0  6.19888E+08  9.17890E+11
      1881     9400.0  6.21718E+08  9.20999E+11
      1882     9405.0  6.23599E+08  9.24117E+11
      1883     9410.0  6.25064E+08  9.27242E+11
      1884     9415.0  6.27882E+08  9.30381E+11
      1885     9420.0  6.28798E+08  9.33525E+11
      1886     9425.0  6.30965E+08  9.36680E+11
      1887     9430.0  6.32748E+08  9.39844E+11
      1888     9435.0  6.35060E+08  9.43019E+11
      1889     9440.0  6.36774E+08  9.46203E+11
      1890     9445.0  6.38711E+08  9.49397E+11
      1891     9450.0  6.40672E+08  9.52600E+11
      1892     9455.0  6.42177E+08  9.55811E+11
      1893     9460.0  6.44392E+08  9.59033E+11
      1894     9465.0  6.46197E+08  9.62264E+11
      1895     9470.0  6.48311E+08  9.65505E+11
      1896     9475.0  6.49896E+08  9.68755E+11
      1897     9480.0  6.52478E+08  9.72017E+11
      1898     9485.0  6.53704E+08  9.75286E+11
      1899     9490.0  6.55872E+08  9.78565E+11
      1900     9495.0  6.57747E+08  9.81854E+11
      1901     9500.0  6.59884E+08  9.85153E+11
      1902     9505.0  6.61704E+08  9.88462E+11
      1903     9510.0  6.63872E+08  9.91781E+11
      1904     9515.0  6.65723E+08  9.95110E+11
      1905     9520.0  6.67718E+08  9.98448E+11
      1906     9525.0  6.69658E+08  1.00180E+12
      1907     9530.0  6.71472E+08  1.00515E+12
      1908     9535.0  6.73714E+08  1.00852E+12
      1909     9540.0  6.75368E+08  1.01190E+12
      1910     9545.0  6.77431E+08  1.01529E+12
      1911     9550.0  6.79590E+08  1.01868E+12
      1912     9555.0  6.81563E+08  1.02209E+12
      1913     9560.0  6.83684E+08  1.02551E+12
      1914     9565.0  6.85587E+08  1.02894E+12
      1915     9570.0  6.87382E+08  1.03238E+12
      1916     9575.0  6.89859E+08  1.03583E+12
      1917     9580.0  6.91404E+08  1.03928E+12
      1918     9585.0  6.94345E+08  1.04275E+12
      1919     9590.0  6.95685E+08  1.04623E+12
      1920     9595.0  6.97886E+08  1.04972E+12
      1921     9600.0  6.99549E+08  1.05322E+12
      1922     9605.0  7.02192E+08  1.05673E+12
      1923     9610.0  7.03869E+08  1.06025E+12
      1924     9615.0  7.06360E+08  1.06378E+12
      1925     9620.0  7.08177E+08  1.06732E+12
      1926     9625.0  7.10134E+08  1.07087E+12
      1927     9630.0  7.12214E+08  1.07443E+12
      1928     9635.0  7.14242E+08  1.07801E+12
      1929     9640.0  7.16743E+08  1.08159E+12
      1930     9645.0  7.18563E+08  1.08518E+12
      1931     9650.0  7.20587E+08  1.08878E+12
      1932     9655.0  7.22971E+08  1.09240E+12
      1933     9660.0  7.24565E+08  1.09602E+12
      1934     9665.0  7.27111E+08  1.09966E+12
      1935     9670.0  7.29556E+08  1.10331E+12
      1936     9675.0  7.30916E+08  1.10696E+12
      1937     9680.0  7.33693E+08  1.11063E+12
      1938     9685.0  7.35752E+08  1.11431E+12
      1939     9690.0  7.37689E+08  1.11800E+12
      1940     9695.0  7.39876E+08  1.12170E+12
      1941     9700.0  7.41809E+08  1.12540E+12
      1942     9705.0  7.44314E+08  1.12913E+12
      1943     9710.0  7.46482E+08  1.13286E+12
      1944     9715.0  7.48455E+08  1.13660E+12
      1945     9720.0  7.51188E+08  1.14036E+12
      1946     9725.0  7.52802E+08  1.14412E+12
      1947     9730.0  7.54885E+08  1.14790E+12
      1948     9735.0  7.57478E+08  1.15168E+12
      1949     9740.0  7.59487E+08  1.15548E+12
      1950     9745.0  7.61445E+08  1.15929E+12
      1951     9750.0  7.64254E+08  1.16311E+12
      1952     9755.0  7.66476E+08  1.16694E+12
      1953     9760.0  7.68296E+08  1.17078E+12
      1954     9765.0  7.70901E+08  1.17464E+12
      1955     9770.0  7.72452E+08  1.17850E+12
      1956     9775.0  7.75403E+08  1.18238E+12
      1957     9780.0  7.76988E+08  1.18626E+12
      1958     9785.0  7.80188E+08  1.19016E+12
      1959     9790.0  7.81837E+08  1.19407E+12
      1960     9795.0  7.84191E+08  1.19799E+12
      1961     9800.0  7.86353E+08  1.20192E+12
      1962     9805.0  7.88508E+08  1.20587E+12
      1963     9810.0  7.91042E+08  1.20982E+12
      1964     9815.0  7.93172E+08  1.21379E+12
      1965     9820.0  7.95829E+08  1.21777E+12
      1966     9825.0  7.97925E+08  1.22176E+12
      1967     9830.0  8.00286E+08  1.22576E+12
      1968     9835.0  8.02491E+08  1.22977E+12
      1969     9840.0  8.04890E+08  1.23379E+12
      1970     9845.0  8.06661E+08  1.23783E+12
      1971     9850.0  8.09566E+08  1.24188E+12
      1972     9855.0  8.11783E+08  1.24593E+12
      1973     9860.0  8.14691E+08  1.25001E+12
      1974     9865.0  8.16553E+08  1.25409E+12
      1975     9870.0  8.18726E+08  1.25818E+12
      1976     9875.0  8.21335E+08  1.26229E+12
      1977     9880.0  8.23700E+08  1.26641E+12
      1978     9885.0  8.25780E+08  1.27054E+12
      1979     9890.0  8.28594E+08  1.27468E+12
      1980     9895.0  8.30637E+08  1.27883E+12
      1981     9900.0  8.33147E+08  1.28300E+12
      1982     9905.0  8.35516E+08  1.28718E+12
      1983     9910.0  8.38191E+08  1.29137E+12
      1984     9915.0  8.39498E+08  1.29557E+12
      1985     9920.0  8.42806E+08  1.29978E+12
      1986     9925.0  8.44912E+08  1.30401E+12
      1987     9930.0  8.48065E+08  1.30825E+12
      1988     9935.0  8.50094E+08  1.31250E+12
      1989     9940.0  8.52669E+08  1.31676E+12
      1990     9945.0  8.55221E+08  1.32104E+12
      1991     9950.0  8.56589E+08  1.32532E+12
      1992     9955.0  8.60112E+08  1.32962E+12
      1993     9960.0  8.62249E+08  1.33393E+12
      1994     9965.0  8.64635E+08  1.33825E+12
      1995     9970.0  8.67395E+08  1.34259E+12
      1996     9975.0  8.69887E+08  1.34694E+12
      1997     9980.0  8.72101E+08  1.35130E+12
      1998     9985.0  8.74665E+08  1.35567E+12
      1999     9990.0  8.76826E+08  1.36006E+12
      2000     9995.0  8.79832E+08  1.36446E+12
      2001    10000.0  8.81743E+08  1.36887E+12
      2002    10005.0  8.84999E+08  1.37329E+12
      2003    10010.0  8.87610E+08  1.37773E+12
      2004    10015.0  8.89768E+08  1.38218E+12
      2005    10020.0  8.92246E+08  1.38664E+12
      2006    10025.0  8.94735E+08  1.39111E+12
      2007    10030.0  8.97411E+08  1.39560E+12
      2008    10035.0  8.99755E+08  1.40010E+12
      2009    10040.0  9.03221E+08  1.40461E+12
      2010    10045.0  9.04684E+08  1.40914E+12
      2011    10050.0  9.07864E+08  1.41368E+12
      2012    10055.0  9.10110E+08  1.41823E+12
      2013    10060.0  9.12658E+08  1.42279E+12
      2014    10065.0  9.14828E+08  1.42736E+12
      2015    10070.0  9.18231E+08  1.43196E+12
      2016    10075.0  9.20421E+08  1.43656E+12
      2017    10080.0  9.23928E+08  1.44118E+12
      2018    10085.0  9.26060E+08  1.44581E+12
      2019    10090.0  9.28475E+08  1.45045E+12
      2020    10095.0  9.30951E+08  1.45511E+12
      2021    10100.0  9.33439E+08  1.45977E+12
      2022    10105.0  9.36501E+08  1.46445E+12
      2023    10110.0  9.38801E+08  1.46915E+12
      2024    10115.0  9.42318E+08  1.47386E+12
      2025    10120.0  9.44360E+08  1.47858E+12
      2026    10125.0  9.47384E+08  1.48332E+12
      2027    10130.0  9.49409E+08  1.48807E+12
      2028    10135.0  9.52551E+08  1.49283E+12
      2029    10140.0  9.54563E+08  1.49760E+12
      2030    10145.0  9.58005E+08  1.50239E+12
      2031    10150.0  9.60712E+08  1.50720E+12
      2032    10155.0  9.63296E+08  1.51201E+12
      2033    10160.0  9.66138E+08  1.51684E+12
      2034    10165.0  9.68572E+08  1.52169E+12
      2035    10170.0  9.70915E+08  1.52654E+12
      2036    10175.0  9.73999E+08  1.53141E+12
      2037    10180.0  9.77015E+08  1.53630E+12
      2038    10185.0  9.79846E+08  1.54119E+12
      2039    10190.0  9.82448E+08  1.54611E+12
      2040    10195.0  9.85664E+08  1.55103E+12
      2041    10200.0  9.87964E+08  1.55597E+12
      2042    10205.0  9.90427E+08  1.56093E+12
      2043    10210.0  9.93205E+08  1.56589E+12
      2044    10215.0  9.96285E+08  1.57087E+12
      2045    10220.0  9.98830E+08  1.57587E+12
      2046    10225.0  1.00253E+09  1.58088E+12
      2047    10230.0  1.00492E+09  1.58591E+12
      2048    10235.0  1.00741E+09  1.59094E+12
      2049    10240.0  1.01041E+09  1.59599E+12
      2050    10245.0  1.01296E+09  1.60106E+12
      2051    10250.0  1.01608E+09  1.60614E+12
      2052    10255.0  1.01864E+09  1.61123E+12
      2053    10260.0  1.02196E+09  1.61634E+12
      2054    10265.0  1.02484E+09  1.62147E+12
      2055    10270.0  1.02770E+09  1.62661E+12
      2056    10275.0  1.03001E+09  1.63176E+12
      2057    10280.0  1.03348E+09  1.63692E+12
      2058    10285.0  1.03548E+09  1.64210E+12
      2059    10290.0  1.03913E+09  1.64730E+12
      2060    10295.0  1.04226E+09  1.65251E+12
      2061    10300.0  1.04457E+09  1.65773E+12
      2062    10305.0  1.04830E+09  1.66297E+12
      2063    10310.0  1.05019E+09  1.66822E+12
      2064    10315.0  1.05405E+09  1.67349E+12
      2065    10320.0  1.05591E+09  1.67877E+12
      2066    10325.0  1.05949E+09  1.68407E+12
      2067    10330.0  1.06253E+09  1.68938E+12
      2068    10335.0  1.06572E+09  1.69471E+12
      2069    10340.0  1.06825E+09  1.70005E+12
      2070    10345.0  1.07168E+09  1.70541E+12
      2071    10350.0  1.07449E+09  1.71078E+12
      2072    10355.0  1.07687E+09  1.71617E+12
      2073    10360.0  1.08028E+09  1.72157E+12
      2074    10365.0  1.08339E+09  1.72699E+12
      2075    10370.0  1.08670E+09  1.73242E+12
      2076    10375.0  1.08952E+09  1.73787E+12
      2077    10380.0  1.09238E+09  1.74333E+12
      2078    10385.0  1.09551E+09  1.74881E+12
      2079    10390.0  1.09822E+09  1.75430E+12
      2080    10395.0  1.10149E+09  1.75981E+12
      2081    10400.0  1.10479E+09  1.76533E+12
      2082    10405.0  1.10743E+09  1.77087E+12
      2083    10410.0  1.11040E+09  1.77642E+12
      2084    10415.0  1.11402E+09  1.78199E+12
      2085    10420.0  1.11676E+09  1.78757E+12
      2086    10425.0  1.11984E+09  1.79317E+12
      2087    10430.0  1.12281E+09  1.79879E+12
      2088    10435.0  1.12598E+09  1.80442E+12
      2089    10440.0  1.12981E+09  1.81006E+12
      2090    10445.0  1.13217E+09  1.81573E+12
      2091    10450.0  1.13644E+09  1.82141E+12
      2092    10455.0  1.13839E+09  1.82710E+12
      2093    10460.0  1.14182E+09  1.83281E+12
      2094    10465.0  1.14459E+09  1.83853E+12
      2095    10470.0  1.14857E+09  1.84427E+12
      2096    10475.0  1.15095E+09  1.85003E+12
      2097    10480.0  1.15447E+09  1.85580E+12
      2098    10485.0  1.15806E+09  1.86159E+12
      2099    10490.0  1.16074E+09  1.86740E+12
      2100    10495.0  1.16364E+09  1.87321E+12
      2101    10500.0  1.16756E+09  1.87905E+12
      2102    10505.0  1.17045E+09  1.88490E+12
      2103    10510.0  1.17344E+09  1.89077E+12
      2104    10515.0  1.17727E+09  1.89666E+12
      2105    10520.0  1.18078E+09  1.90256E+12
      2106    10525.0  1.18331E+09  1.90848E+12
      2107    10530.0  1.18598E+09  1.91441E+12
      2108    10535.0  1.19052E+09  1.92036E+12
      2109    10540.0  1.19267E+09  1.92632E+12
      2110    10545.0  1.19645E+09  1.93231E+12
      2111    10550.0  1.19971E+09  1.93830E+12
      2112    10555.0  1.20345E+09  1.94432E+12
      2113    10560.0  1.20599E+09  1.95035E+12
      2114    10565.0  1.20983E+09  1.95640E+12
      2115    10570.0  1.21299E+09  1.96247E+12
      2116    10575.0  1.21546E+09  1.96854E+12
      2117    10580.0  1.21949E+09  1.97464E+12
      2118    10585.0  1.22314E+09  1.98076E+12
      2119    10590.0  1.22656E+09  1.98689E+12
      2120    10595.0  1.22983E+09  1.99304E+12
      2121    10600.0  1.23332E+09  1.99920E+12
      2122    10605.0  1.23613E+09  2.00539E+12
      2123    10610.0  1.24026E+09  2.01159E+12
      2124    10615.0  1.24252E+09  2.01780E+12
      2125    10620.0  1.24724E+09  2.02404E+12
      2126    10625.0  1.24967E+09  2.03028E+12
      2127    10630.0  1.25343E+09  2.03655E+12
      2128    10635.0  1.25657E+09  2.04283E+12
      2129    10640.0  1.26055E+09  2.04914E+12
      2130    10645.0  1.26356E+09  2.05545E+12
      2131    10650.0  1.26715E+09  2.06179E+12
      2132    10655.0  1.27046E+09  2.06814E+12
      2133    10660.0  1.27377E+09  2.07451E+12
      2134    10665.0  1.27742E+09  2.08090E+12
      2135    10670.0  1.28074E+09  2.08730E+12
      2136    10675.0  1.28475E+09  2.09373E+12
      2137    10680.0  1.28763E+09  2.10016E+12
      2138    10685.0  1.29110E+09  2.10662E+12
      2139    10690.0  1.29522E+09  2.11310E+12
      2140    10695.0  1.29849E+09  2.11959E+12
      2141    10700.0  1.30175E+09  2.12610E+12
      2142    10705.0  1.30596E+09  2.13263E+12
      2143    10710.0  1.30887E+09  2.13917E+12
      2144    10715.0  1.31279E+09  2.14573E+12
      2145    10720.0  1.31622E+09  2.15232E+12
      2146    10725.0  1.32001E+09  2.15892E+12
      2147    10730.0  1.32304E+09  2.16553E+12
      2148    10735.0  1.32704E+09  2.17217E+12
      2149    10740.0  1.33043E+09  2.17882E+12
      2150    10745.0  1.33435E+09  2.18549E+12
      2151    10750.0  1.33721E+09  2.19218E+12
      2152    10755.0  1.34149E+09  2.19888E+12
      2153    10760.0  1.34510E+09  2.20561E+12
      2154    10765.0  1.34854E+09  2.21235E+12
      2155    10770.0  1.35208E+09  2.21911E+12
      2156    10775.0  1.35582E+09  2.22589E+12
      2157    10780.0  1.35914E+09  2.23269E+12
      2158    10785.0  1.36336E+09  2.23950E+12
      2159    10790.0  1.36705E+09  2.24634E+12
      2160    10795.0  1.37071E+09  2.25319E+12
      2161    10800.0  1.37448E+09  2.26007E+12
      2162    10805.0  1.37738E+09  2.26695E+12
      2163    10810.0  1.38222E+09  2.27386E+12
      2164    10815.0  1.38508E+09  2.28079E+12
      2165    10820.0  1.38903E+09  2.28773E+12
      2166    10825.0  1.39307E+09  2.29470E+12
      2167    10830.0  1.39646E+09  2.30168E+12
      2168    10835.0  1.40051E+09  2.30868E+12
      2169    10840.0  1.40428E+09  2.31571E+12
      2170    10845.0  1.40816E+09  2.32275E+12
      2171    10850.0  1.41148E+09  2.32980E+12
      2172    10855.0  1.41544E+09  2.33688E+12
      2173    10860.0  1.41950E+09  2.34398E+12
      2174    10865.0  1.42347E+09  2.35110E+12
      2175    10870.0  1.42685E+09  2.35823E+12
      2176    10875.0  1.43097E+09  2.36538E+12
      2177    10880.0  1.43472E+09  2.37256E+12
      2178    10885.0  1.43809E+09  2.37975E+12
      2179    10890.0  1.44233E+09  2.38696E+12
      2180    10895.0  1.44626E+09  2.39419E+12
      2181    10900.0  1.44962E+09  2.40144E+12
      2182    10905.0  1.45454E+09  2.40871E+12
      2183    10910.0  1.45745E+09  2.41600E+12
      2184    10915.0  1.46172E+09  2.42331E+12
      2185    10920.0  1.46519E+09  2.43063E+12
      2186    10925.0  1.46966E+09  2.43798E+12
      2187    10930.0  1.47369E+09  2.44535E+12
      2188    10935.0  1.47746E+09  2.45274E+12
      2189    10940.0  1.48148E+09  2.46015E+12
      2190    10945.0  1.48572E+09  2.46757E+12
      2191    10950.0  1.48878E+09  2.47502E+12
      2192    10955.0  1.49385E+09  2.48249E+12
      2193    10960.0  1.49701E+09  2.48997E+12
      2194    10965.0  1.50129E+09  2.49748E+12
      2195    10970.0  1.50554E+09  2.50501E+12
      2196    10975.0  1.50889E+09  2.51255E+12
      2197    10980.0  1.51389E+09  2.52012E+12
      2198    10985.0  1.51712E+09  2.52771E+12
      2199    10990.0  1.52106E+09  2.53531E+12
      2200    10995.0  1.52559E+09  2.54294E+12
      2201    11000.0  1.52890E+09  2.55058E+12
      2202    11005.0  1.53269E+09  2.55825E+12
      2203    11010.0  1.53828E+09  2.56594E+12
      2204    11015.0  1.54215E+09  2.57365E+12
      2205    11020.0  1.54580E+09  2.58138E+12
      2206    11025.0  1.54972E+09  2.58913E+12
      2207    11030.0  1.55421E+09  2.59690E+12
      2208    11035.0  1.55781E+09  2.60469E+12
      2209    11040.0  1.56311E+09  2.61250E+12
      2210    11045.0  1.56629E+09  2.62033E+12
      2211    11050.0  1.57102E+09  2.62819E+12
      2212    11055.0  1.57390E+09  2.63606E+12
      2213    11060.0  1.57916E+09  2.64395E+12
      2214    11065.0  1.58285E+09  2.65187E+12
      2215    11070.0  1.58652E+09  2.65980E+12
      2216    11075.0  1.59178E+09  2.66776E+12
      2217    11080.0  1.59584E+09  2.67574E+12
      2218    11085.0  1.60031E+09  2.68374E+12
      2219    11090.0  1.60441E+09  2.69176E+12
      2220    11095.0  1.60885E+09  2.69981E+12
      2221    11100.0  1.61198E+09  2.70787E+12
      2222    11105.0  1.61688E+09  2.71595E+12
      2223    11110.0  1.62081E+09  2.72406E+12
      2224    11115.0  1.62593E+09  2.73219E+12
      2225    11120.0  1.62975E+09  2.74033E+12
      2226    11125.0  1.63432E+09  2.74851E+12
      2227    11130.0  1.63848E+09  2.75670E+12
      2228    11135.0  1.64270E+09  2.76491E+12
      2229    11140.0  1.64660E+09  2.77314E+12
      2230    11145.0  1.65065E+09  2.78140E+12
      2231    11150.0  1.65619E+09  2.78968E+12
      2232    11155.0  1.65987E+09  2.79798E+12
      2233    11160.0  1.66526E+09  2.80630E+12
      2234    11165.0  1.66876E+09  2.81465E+12
      2235    11170.0  1.67321E+09  2.82301E+12
      2236    11175.0  1.67643E+09  2.83140E+12
      2237    11180.0  1.68232E+09  2.83981E+12
      2238    11185.0  1.68668E+09  2.84824E+12
      2239    11190.0  1.69078E+09  2.85670E+12
      2240    11195.0  1.69517E+09  2.86517E+12
      2241    11200.0  1.70019E+09  2.87367E+12
      2242    11205.0  1.70417E+09  2.88219E+12
      2243    11210.0  1.70858E+09  2.89074E+12
      2244    11215.0  1.71346E+09  2.89930E+12
      2245    11220.0  1.71758E+09  2.90789E+12
      2246    11225.0  1.72154E+09  2.91650E+12
      2247    11230.0  1.72762E+09  2.92514E+12
      2248    11235.0  1.73124E+09  2.93379E+12
      2249    11240.0  1.73555E+09  2.94247E+12
      2250    11245.0  1.73993E+09  2.95117E+12
      2251    11250.0  1.74452E+09  2.95989E+12
      2252    11255.0  1.74918E+09  2.96864E+12
      2253    11260.0  1.75355E+09  2.97741E+12
      2254    11265.0  1.75930E+09  2.98620E+12
      2255    11270.0  1.76322E+09  2.99502E+12
      2256    11275.0  1.76800E+09  3.00386E+12
      2257    11280.0  1.77221E+09  3.01272E+12
      2258    11285.0  1.77718E+09  3.02161E+12
      2259    11290.0  1.78104E+09  3.03051E+12
      2260    11295.0  1.78654E+09  3.03944E+12
      2261    11300.0  1.79097E+09  3.04840E+12
      2262    11305.0  1.79597E+09  3.05738E+12
      2263    11310.0  1.79988E+09  3.06638E+12
      2264    11315.0  1.80541E+09  3.07541E+12
      2265    11320.0  1.80893E+09  3.08445E+12
      2266    11325.0  1.81403E+09  3.09352E+12
      2267    11330.0  1.81931E+09  3.10262E+12
      2268    11335.0  1.82347E+09  3.11173E+12
      2269    11340.0  1.82926E+09  3.12088E+12
      2270    11345.0  1.83310E+09  3.13005E+12
      2271    11350.0  1.83846E+09  3.13924E+12
      2272    11355.0  1.84302E+09  3.14845E+12
      2273    11360.0  1.84723E+09  3.15769E+12
      2274    11365.0  1.85223E+09  3.16695E+12
      2275    11370.0  1.85739E+09  3.17624E+12
      2276    11375.0  1.86214E+09  3.18555E+12
      2277    11380.0  1.86708E+09  3.19488E+12
      2278    11385.0  1.87231E+09  3.20425E+12
      2279    11390.0  1.87623E+09  3.21363E+12
      2280    11395.0  1.88129E+09  3.22303E+12
      2281    11400.0  1.88637E+09  3.23246E+12
      2282    11405.0  1.89113E+09  3.24192E+12
      2283    11410.0  1.89653E+09  3.25140E+12
      2284    11415.0  1.90036E+09  3.26090E+12
      2285    11420.0  1.90628E+09  3.27044E+12
      2286    11425.0  1.91068E+09  3.27999E+12
      2287    11430.0  1.91502E+09  3.28956E+12
      2288    11435.0  1.92098E+09  3.29917E+12
      2289    11440.0  1.92546E+09  3.30880E+12
      2290    11445.0  1.93053E+09  3.31845E+12
      2291    11450.0  1.93651E+09  3.32813E+12
      2292    11455.0  1.94108E+09  3.33784E+12
      2293    11460.0  1.94576E+09  3.34757E+12
      2294    11465.0  1.95059E+09  3.35732E+12
      2295    11470.0  1.95542E+09  3.36710E+12
      2296    11475.0  1.96125E+09  3.37690E+12
      2297    11480.0  1.96498E+09  3.38673E+12
      2298    11485.0  1.97161E+09  3.39659E+12
      2299    11490.0  1.97574E+09  3.40646E+12
      2300    11495.0  1.98094E+09  3.41637E+12
      2301    11500.0  1.98586E+09  3.42630E+12
      2302    11505.0  1.99176E+09  3.43626E+12
      2303    11510.0  1.99584E+09  3.44624E+12
      2304    11515.0  2.00162E+09  3.45624E+12
      2305    11520.0  2.00706E+09  3.46628E+12
      2306    11525.0  2.01204E+09  3.47634E+12
      2307    11530.0  2.01672E+09  3.48642E+12
      2308    11535.0  2.02215E+09  3.49653E+12
      2309    11540.0  2.02732E+09  3.50667E+12
      2310    11545.0  2.03221E+09  3.51683E+12
      2311    11550.0  2.03749E+09  3.52702E+12
      2312    11555.0  2.04366E+09  3.53724E+12
      2313    11560.0  2.04780E+09  3.54748E+12
      2314    11565.0  2.05323E+09  3.55774E+12
      2315    11570.0  2.05947E+09  3.56804E+12
      2316    11575.0  2.06333E+09  3.57836E+12
      2317    11580.0  2.06920E+09  3.58870E+12
      2318    11585.0  2.07395E+09  3.59907E+12
      2319    11590.0  2.08066E+09  3.60948E+12
      2320    11595.0  2.08519E+09  3.61990E+12
      2321    11600.0  2.09105E+09  3.63036E+12
      2322    11605.0  2.09588E+09  3.64084E+12
      2323    11610.0  2.10141E+09  3.65134E+12
      2324    11615.0  2.10596E+09  3.66187E+12
      2325    11620.0  2.11233E+09  3.67243E+12
      2326    11625.0  2.11750E+09  3.68302E+12
      2327    11630.0  2.12263E+09  3.69364E+12
      2328    11635.0  2.12828E+09  3.70428E+12
      2329    11640.0  2.13361E+09  3.71494E+12
      2330    11645.0  2.13943E+09  3.72564E+12
      2331    11650.0  2.14412E+09  3.73636E+12
      2332    11655.0  2.14988E+09  3.74711E+12
      2333    11660.0  2.15573E+09  3.75789E+12
      2334    11665.0  2.16041E+09  3.76869E+12
      2335    11670.0  2.16572E+09  3.77952E+12
      2336    11675.0  2.17276E+09  3.79038E+12
      2337    11680.0  2.17704E+09  3.80127E+12
      2338    11685.0  2.18293E+09  3.81218E+12
      2339    11690.0  2.18852E+09  3.82313E+12
      2340    11695.0  2.19453E+09  3.83410E+12
      2341    11700.0  2.19980E+09  3.84510E+12
      2342    11705.0  2.20517E+09  3.85612E+12
      2343    11710.0  2.21135E+09  3.86718E+12
      2344    11715.0  2.21656E+09  3.87826E+12
      2345    11720.0  2.22164E+09  3.88937E+12
      2346    11725.0  2.22854E+09  3.90052E+12
      2347    11730.0  2.23347E+09  3.91168E+12
      2348    11735.0  2.23815E+09  3.92287E+12
      2349    11740.0  2.24517E+09  3.93410E+12
      2350    11745.0  2.25060E+09  3.94535E+12
      2351    11750.0  2.25583E+09  3.95663E+12
      2352    11755.0  2.26130E+09  3.96794E+12
      2353    11760.0  2.26855E+09  3.97928E+12
      2354    11765.0  2.27238E+09  3.99064E+12
      2355    11770.0  2.27950E+09  4.00204E+12
      2356    11775.0  2.28455E+09  4.01346E+12
      2357    11780.0  2.29094E+09  4.02492E+12
      2358    11785.0  2.29541E+09  4.03639E+12
      2359    11790.0  2.30234E+09  4.04791E+12
      2360    11795.0  2.30893E+09  4.05945E+12
      2361    11800.0  2.31343E+09  4.07102E+12
      2362    11805.0  2.31948E+09  4.08262E+12
      2363    11810.0  2.32592E+09  4.09425E+12
      2364    11815.0  2.33088E+09  4.10590E+12
      2365    11820.0  2.33725E+09  4.11759E+12
      2366    11825.0  2.34353E+09  4.12930E+12
      2367    11830.0  2.34886E+09  4.14105E+12
      2368    11835.0  2.35490E+09  4.15282E+12
      2369    11840.0  2.36073E+09  4.16463E+12
      2370    11845.0  2.36722E+09  4.17646E+12
      2371    11850.0  2.37259E+09  4.18832E+12
      2372    11855.0  2.37850E+09  4.20022E+12
      2373    11860.0  2.38450E+09  4.21214E+12
      2374    11865.0  2.39109E+09  4.22410E+12
      2375    11870.0  2.39688E+09  4.23608E+12
      2376    11875.0  2.40290E+09  4.24809E+12
      2377    11880.0  2.40924E+09  4.26014E+12
      2378    11885.0  2.41494E+09  4.27222E+12
      2379    11890.0  2.42061E+09  4.28432E+12
      2380    11895.0  2.42698E+09  4.29645E+12
      2381    11900.0  2.43232E+09  4.30861E+12
      2382    11905.0  2.43944E+09  4.32081E+12
      2383    11910.0  2.44486E+09  4.33304E+12
      2384    11915.0  2.45205E+09  4.34530E+12
      2385    11920.0  2.45694E+09  4.35758E+12
      2386    11925.0  2.46341E+09  4.36990E+12
      2387    11930.0  2.47005E+09  4.38225E+12
      2388    11935.0  2.47559E+09  4.39463E+12
      2389    11940.0  2.48262E+09  4.40704E+12
      2390    11945.0  2.48834E+09  4.41948E+12
      2391    11950.0  2.49522E+09  4.43196E+12
      2392    11955.0  2.50093E+09  4.44446E+12
      2393    11960.0  2.50694E+09  4.45700E+12
      2394    11965.0  2.51385E+09  4.46957E+12
      2395    11970.0  2.51978E+09  4.48216E+12
      2396    11975.0  2.52545E+09  4.49479E+12
      2397    11980.0  2.53311E+09  4.50746E+12
      2398    11985.0  2.53826E+09  4.52015E+12
      2399    11990.0  2.54484E+09  4.53287E+12
      2400    11995.0  2.55153E+09  4.54563E+12
      2401    12000.0  2.55694E+09  4.55842E+12
      2402    12005.0  2.56345E+09  4.57123E+12
      2403    12010.0  2.57014E+09  4.58408E+12
      2404    12015.0  2.57758E+09  4.59697E+12
      2405    12020.0  2.58357E+09  4.60989E+12
      2406    12025.0  2.58913E+09  4.62283E+12
      2407    12030.0  2.59575E+09  4.63581E+12
      2408    12035.0  2.60262E+09  4.64883E+12
      2409    12040.0  2.60821E+09  4.66187E+12
      2410    12045.0  2.61625E+09  4.67495E+12
      2411    12050.0  2.62235E+09  4.68806E+12
      2412    12055.0  2.62819E+09  4.70120E+12
      2413    12060.0  2.63520E+09  4.71438E+12
      2414    12065.0  2.64169E+09  4.72759E+12
      2415    12070.0  2.64723E+09  4.74082E+12
      2416    12075.0  2.65519E+09  4.75410E+12
      2417    12080.0  2.66035E+09  4.76740E+12
      2418    12085.0  2.66915E+09  4.78075E+12
      2419    12090.0  2.67406E+09  4.79412E+12
      2420    12095.0  2.68167E+09  4.80752E+12
      2421    12100.0  2.68804E+09  4.82096E+12
      2422    12105.0  2.69355E+09  4.83443E+12
      2423    12110.0  2.70092E+09  4.84794E+12
      2424    12115.0  2.70808E+09  4.86148E+12
      2425    12120.0  2.71454E+09  4.87505E+12
      2426    12125.0  2.72101E+09  4.88865E+12
      2427    12130.0  2.72869E+09  4.90230E+12
      2428    12135.0  2.73414E+09  4.91597E+12
      2429    12140.0  2.74172E+09  4.92968E+12
      2430    12145.0  2.74668E+09  4.94341E+12
      2431    12150.0  2.75486E+09  4.95719E+12
      2432    12155.0  2.76158E+09  4.97099E+12
      2433    12160.0  2.76866E+09  4.98484E+12
      2434    12165.0  2.77607E+09  4.99872E+12
      2435    12170.0  2.78288E+09  5.01263E+12
      2436    12175.0  2.78750E+09  5.02657E+12
      2437    12180.0  2.79596E+09  5.04055E+12
      2438    12185.0  2.80277E+09  5.05456E+12
      2439    12190.0  2.80991E+09  5.06861E+12
      2440    12195.0  2.81685E+09  5.08270E+12
      2441    12200.0  2.82369E+09  5.09681E+12
      2442    12205.0  2.83120E+09  5.11097E+12
      2443    12210.0  2.83753E+09  5.12516E+12
      2444    12215.0  2.84485E+09  5.13938E+12
      2445    12220.0  2.85149E+09  5.15364E+12
      2446    12225.0  2.85783E+09  5.16793E+12
      2447    12230.0  2.86494E+09  5.18225E+12
      2448    12235.0  2.87342E+09  5.19662E+12
      2449    12240.0  2.87985E+09  5.21102E+12
      2450    12245.0  2.88653E+09  5.22545E+12
      2451    12250.0  2.89304E+09  5.23992E+12
      2452    12255.0  2.90079E+09  5.25442E+12
      2453    12260.0  2.90692E+09  5.26896E+12
      2454    12265.0  2.91533E+09  5.28353E+12
      2455    12270.0  2.92259E+09  5.29815E+12
      2456    12275.0  2.93000E+09  5.31280E+12
      2457    12280.0  2.93583E+09  5.32748E+12
      2458    12285.0  2.94416E+09  5.34220E+12
      2459    12290.0  2.95106E+09  5.35695E+12
      2460    12295.0  2.95707E+09  5.37174E+12
      2461    12300.0  2.96635E+09  5.38657E+12
      2462    12305.0  2.97269E+09  5.40143E+12
      2463    12310.0  2.98049E+09  5.41633E+12
      2464    12315.0  2.98689E+09  5.43127E+12
      2465    12320.0  2.99493E+09  5.44624E+12
      2466    12325.0  3.00125E+09  5.46125E+12
      2467    12330.0  3.00832E+09  5.47629E+12
      2468    12335.0  3.01670E+09  5.49138E+12
      2469    12340.0  3.02455E+09  5.50650E+12
      2470    12345.0  3.03030E+09  5.52165E+12
      2471    12350.0  3.03971E+09  5.53685E+12
      2472    12355.0  3.04593E+09  5.55208E+12
      2473    12360.0  3.05350E+09  5.56735E+12
      2474    12365.0  3.06060E+09  5.58265E+12
      2475    12370.0  3.06820E+09  5.59799E+12
      2476    12375.0  3.07547E+09  5.61337E+12
      2477    12380.0  3.08336E+09  5.62878E+12
      2478    12385.0  3.09123E+09  5.64424E+12
      2479    12390.0  3.09886E+09  5.65973E+12
      2480    12395.0  3.10573E+09  5.67526E+12
      2481    12400.0  3.11259E+09  5.69083E+12
      2482    12405.0  3.12074E+09  5.70643E+12
      2483    12410.0  3.12903E+09  5.72207E+12
      2484    12415.0  3.13625E+09  5.73776E+12
      2485    12420.0  3.14412E+09  5.75348E+12
      2486    12425.0  3.15162E+09  5.76923E+12
      2487    12430.0  3.15780E+09  5.78502E+12
      2488    12435.0  3.16700E+09  5.80086E+12
      2489    12440.0  3.17364E+09  5.81673E+12
      2490    12445.0  3.18300E+09  5.83264E+12
      2491    12450.0  3.18925E+09  5.84859E+12
      2492    12455.0  3.19827E+09  5.86458E+12
      2493    12460.0  3.20633E+09  5.88061E+12
      2494    12465.0  3.21250E+09  5.89667E+12
      2495    12470.0  3.22066E+09  5.91278E+12
      2496    12475.0  3.22869E+09  5.92892E+12
      2497    12480.0  3.23554E+09  5.94510E+12
      2498    12485.0  3.24450E+09  5.96132E+12
      2499    12490.0  3.25301E+09  5.97759E+12
      2500    12495.0  3.25965E+09  5.99388E+12
      2501    12500.0  3.26776E+09  6.01022E+12
      2502    12505.0  3.27533E+09  6.02660E+12
      2503    12510.0  3.28379E+09  6.04302E+12
      2504    12515.0  3.29111E+09  6.05947E+12
      2505    12520.0  3.29938E+09  6.07597E+12
      2506    12525.0  3.30813E+09  6.09251E+12
      2507    12530.0  3.31618E+09  6.10909E+12
      2508    12535.0  3.32311E+09  6.12571E+12
      2509    12540.0  3.33222E+09  6.14237E+12
      2510    12545.0  3.33850E+09  6.15906E+12
      2511    12550.0  3.34665E+09  6.17579E+12
      2512    12555.0  3.35668E+09  6.19258E+12
      2513    12560.0  3.36388E+09  6.20940E+12
      2514    12565.0  3.37142E+09  6.22625E+12
      2515    12570.0  3.38015E+09  6.24315E+12
      2516    12575.0  3.38780E+09  6.26009E+12
      2517    12580.0  3.39637E+09  6.27708E+12
      2518    12585.0  3.40358E+09  6.29409E+12
      2519    12590.0  3.41277E+09  6.31116E+12
      2520    12595.0  3.42097E+09  6.32826E+12
      2521    12600.0  3.42815E+09  6.34540E+12
      2522    12605.0  3.43804E+09  6.36259E+12
      2523    12610.0  3.44524E+09  6.37982E+12
      2524    12615.0  3.45413E+09  6.39709E+12
      2525    12620.0  3.46122E+09  6.41440E+12
      2526    12625.0  3.47068E+09  6.43175E+12
      2527    12630.0  3.47849E+09  6.44914E+12
      2528    12635.0  3.48711E+09  6.46658E+12
      2529    12640.0  3.49515E+09  6.48405E+12
      2530    12645.0  3.50502E+09  6.50158E+12
      2531    12650.0  3.51083E+09  6.51913E+12
      2532    12655.0  3.52051E+09  6.53674E+12
      2533    12660.0  3.52924E+09  6.55438E+12
      2534    12665.0  3.53683E+09  6.57207E+12
      2535    12670.0  3.54542E+09  6.58979E+12
      2536    12675.0  3.55486E+09  6.60757E+12
      2537    12680.0  3.56232E+09  6.62538E+12
      2538    12685.0  3.57115E+09  6.64323E+12
      2539    12690.0  3.57945E+09  6.66113E+12
      2540    12695.0  3.58864E+09  6.67907E+12
      2541    12700.0  3.59704E+09  6.69706E+12
      2542    12705.0  3.60472E+09  6.71508E+12
      2543    12710.0  3.61548E+09  6.73316E+12
      2544    12715.0  3.62242E+09  6.75127E+12
      2545    12720.0  3.63139E+09  6.76943E+12
      2546    12725.0  3.64059E+09  6.78763E+12
      2547    12730.0  3.64926E+09  6.80588E+12
      2548    12735.0  3.65641E+09  6.82416E+12
      2549    12740.0  3.66622E+09  6.84249E+12
      2550    12745.0  3.67414E+09  6.86086E+12
      2551    12750.0  3.68465E+09  6.87929E+12
      2552    12755.0  3.69157E+09  6.89774E+12
      2553    12760.0  3.70111E+09  6.91625E+12
      2554    12765.0  3.71000E+09  6.93480E+12
      2555    12770.0  3.71747E+09  6.95339E+12
      2556    12775.0  3.72815E+09  6.97203E+12
      2557    12780.0  3.73764E+09  6.99072E+12
      2558    12785.0  3.74506E+09  7.00944E+12
      2559    12790.0  3.75309E+09  7.02821E+12
      2560    12795.0  3.76438E+09  7.04703E+12
      2561    12800.0  3.77132E+09  7.06589E+12
      2562    12805.0  3.78146E+09  7.08479E+12
      2563    12810.0  3.78978E+09  7.10374E+12
      2564    12815.0  3.79911E+09  7.12274E+12
      2565    12820.0  3.80778E+09  7.14178E+12
      2566    12825.0  3.81610E+09  7.16086E+12
      2567    12830.0  3.82755E+09  7.17999E+12
      2568    12835.0  3.83440E+09  7.19917E+12
      2569    12840.0  3.84329E+09  7.21838E+12
      2570    12845.0  3.85409E+09  7.23765E+12
      2571    12850.0  3.86272E+09  7.25697E+12
      2572    12855.0  3.87097E+09  7.27632E+12
      2573    12860.0  3.88075E+09  7.29573E+12
      2574    12865.0  3.89005E+09  7.31518E+12
      2575    12870.0  3.89864E+09  7.33467E+12
      2576    12875.0  3.90868E+09  7.35421E+12
      2577    12880.0  3.91778E+09  7.37380E+12
      2578    12885.0  3.92731E+09  7.39344E+12
      2579    12890.0  3.93573E+09  7.41312E+12
      2580    12895.0  3.94451E+09  7.43284E+12
      2581    12900.0  3.95530E+09  7.45262E+12
      2582    12905.0  3.96297E+09  7.47243E+12
      2583    12910.0  3.97309E+09  7.49230E+12
      2584    12915.0  3.98285E+09  7.51221E+12
      2585    12920.0  3.99240E+09  7.53217E+12
      2586    12925.0  4.00075E+09  7.55218E+12
      2587    12930.0  4.01126E+09  7.57223E+12
      2588    12935.0  4.01919E+09  7.59233E+12
      2589    12940.0  4.03043E+09  7.61248E+12
      2590    12945.0  4.03850E+09  7.63267E+12
      2591    12950.0  4.04991E+09  7.65292E+12
      2592    12955.0  4.05863E+09  7.67322E+12
      2593    12960.0  4.06668E+09  7.69355E+12
      2594    12965.0  4.07805E+09  7.71394E+12
      2595    12970.0  4.08720E+09  7.73437E+12
      2596    12975.0  4.09658E+09  7.75486E+12
      2597    12980.0  4.10564E+09  7.77539E+12
      2598    12985.0  4.11694E+09  7.79597E+12
      2599    12990.0  4.12457E+09  7.81659E+12
      2600    12995.0  4.13513E+09  7.83727E+12
      2601    13000.0  4.14462E+09  7.85799E+12
      2602    13005.0  4.15471E+09  7.87877E+12
      2603    13010.0  4.16266E+09  7.89958E+12
      2604    13015.0  4.17447E+09  7.92045E+12
      2605    13020.0  4.18475E+09  7.94138E+12
      2606    13025.0  4.19296E+09  7.96234E+12
      2607    13030.0  4.20339E+09  7.98336E+12
      2608    13035.0  4.21388E+09  8.00443E+12
      2609    13040.0  4.22222E+09  8.02554E+12
      2610    13045.0  4.23286E+09  8.04670E+12
      2611    13050.0  4.24366E+09  8.06792E+12
      2612    13055.0  4.25308E+09  8.08919E+12
      2613    13060.0  4.26286E+09  8.11050E+12
      2614    13065.0  4.27233E+09  8.13186E+12
      2615    13070.0  4.28340E+09  8.15328E+12
      2616    13075.0  4.29176E+09  8.17474E+12
      2617    13080.0  4.30217E+09  8.19625E+12
      2618    13085.0  4.31382E+09  8.21782E+12
      2619    13090.0  4.32228E+09  8.23943E+12
      2620    13095.0  4.33312E+09  8.26109E+12
      2621    13100.0  4.34415E+09  8.28281E+12
      2622    13105.0  4.35230E+09  8.30458E+12
      2623    13110.0  4.36338E+09  8.32639E+12
      2624    13115.0  4.37291E+09  8.34826E+12
      2625    13120.0  4.38402E+09  8.37018E+12
      2626    13125.0  4.39390E+09  8.39215E+12
      2627    13130.0  4.40402E+09  8.41417E+12
      2628    13135.0  4.41429E+09  8.43624E+12
      2629    13140.0  4.42525E+09  8.45837E+12
      2630    13145.0  4.43364E+09  8.48053E+12
      2631    13150.0  4.44498E+09  8.50276E+12
      2632    13155.0  4.45561E+09  8.52504E+12
      2633    13160.0  4.46464E+09  8.54736E+12
      2634    13165.0  4.47758E+09  8.56975E+12
      2635    13170.0  4.48714E+09  8.59218E+12
      2636    13175.0  4.49687E+09  8.61467E+12
      2637    13180.0  4.50678E+09  8.63720E+12
      2638    13185.0  4.51705E+09  8.65979E+12
      2639    13190.0  4.52916E+09  8.68243E+12
      2640    13195.0  4.53903E+09  8.70513E+12
      2641    13200.0  4.54936E+09  8.72787E+12
      2642    13205.0  4.56154E+09  8.75068E+12
      2643    13210.0  4.56951E+09  8.77353E+12
      2644    13215.0  4.58196E+09  8.79644E+12
      2645    13220.0  4.59179E+09  8.81940E+12
      2646    13225.0  4.60257E+09  8.84241E+12
      2647    13230.0  4.61220E+09  8.86547E+12
      2648    13235.0  4.62424E+09  8.88859E+12
      2649    13240.0  4.63483E+09  8.91177E+12
      2650    13245.0  4.64522E+09  8.93499E+12
      2651    13250.0  4.65548E+09  8.95827E+12
      2652    13255.0  4.66604E+09  8.98160E+12
      2653    13260.0  4.67709E+09  9.00499E+12
      2654    13265.0  4.68629E+09  9.02842E+12
      2655    13270.0  4.69960E+09  9.05192E+12
      2656    13275.0  4.71042E+09  9.07547E+12
      2657    13280.0  4.72075E+09  9.09907E+12
      2658    13285.0  4.73125E+09  9.12273E+12
      2659    13290.0  4.74355E+09  9.14645E+12
      2660    13295.0  4.75245E+09  9.17021E+12
      2661    13300.0  4.76428E+09  9.19403E+12
      2662    13305.0  4.77560E+09  9.21791E+12
      2663    13310.0  4.78763E+09  9.24185E+12
      2664    13315.0  4.79744E+09  9.26583E+12
      2665    13320.0  4.80856E+09  9.28988E+12
      2666    13325.0  4.82044E+09  9.31398E+12
      2667    13330.0  4.82810E+09  9.33812E+12
      2668    13335.0  4.84231E+09  9.36233E+12
      2669    13340.0  4.85354E+09  9.38660E+12
      2670    13345.0  4.86371E+09  9.41092E+12
      2671    13350.0  4.87512E+09  9.43529E+12
      2672    13355.0  4.88667E+09  9.45973E+12
      2673    13360.0  4.89821E+09  9.48422E+12
      2674    13365.0  4.90807E+09  9.50876E+12
      2675    13370.0  4.92002E+09  9.53336E+12
      2676    13375.0  4.93158E+09  9.55801E+12
      2677    13380.0  4.94123E+09  9.58272E+12
      2678    13385.0  4.95471E+09  9.60749E+12
      2679    13390.0  4.96617E+09  9.63233E+12
      2680    13395.0  4.97706E+09  9.65721E+12
      2681    13400.0  4.98697E+09  9.68215E+12
      2682    13405.0  4.99920E+09  9.70714E+12
      2683    13410.0  5.01035E+09  9.73219E+12
      2684    13415.0  5.02382E+09  9.75731E+12
      2685    13420.0  5.03482E+09  9.78249E+12
      2686    13425.0  5.04660E+09  9.80772E+12
      2687    13430.0  5.05664E+09  9.83300E+12
      2688    13435.0  5.06725E+09  9.85834E+12
      2689    13440.0  5.07999E+09  9.88374E+12
      2690    13445.0  5.09282E+09  9.90920E+12
      2691    13450.0  5.10312E+09  9.93472E+12
      2692    13455.0  5.11544E+09  9.96030E+12
      2693    13460.0  5.12804E+09  9.98594E+12
      2694    13465.0  5.13784E+09  1.00116E+13
      2695    13470.0  5.15117E+09  1.00374E+13
      2696    13475.0  5.16042E+09  1.00632E+13
      2697    13480.0  5.17424E+09  1.00891E+13
      2698    13485.0  5.18494E+09  1.01150E+13
      2699    13490.0  5.19796E+09  1.01410E+13
      2700    13495.0  5.21002E+09  1.01670E+13
      2701    13500.0  5.22141E+09  1.01931E+13
      2702    13505.0  5.23104E+09  1.02193E+13
      2703    13510.0  5.24617E+09  1.02455E+13
      2704    13515.0  5.25572E+09  1.02718E+13
      2705    13520.0  5.26768E+09  1.02981E+13
      2706    13525.0  5.28170E+09  1.03245E+13
      2707    13530.0  5.29394E+09  1.03510E+13
      2708    13535.0  5.30507E+09  1.03775E+13
      2709    13540.0  5.31740E+09  1.04041E+13
      2710    13545.0  5.32901E+09  1.04308E+13
      2711    13550.0  5.34000E+09  1.04575E+13
      2712    13555.0  5.35357E+09  1.04842E+13
      2713    13560.0  5.36631E+09  1.05111E+13
      2714    13565.0  5.37899E+09  1.05380E+13
      2715    13570.0  5.38859E+09  1.05649E+13
      2716    13575.0  5.40234E+09  1.05919E+13
      2717    13580.0  5.41420E+09  1.06190E+13
      2718    13585.0  5.42534E+09  1.06461E+13
      2719    13590.0  5.43860E+09  1.06733E+13
      2720    13595.0  5.45233E+09  1.07006E+13
      2721    13600.0  5.46166E+09  1.07279E+13
      2722    13605.0  5.47667E+09  1.07553E+13
      2723    13610.0  5.48916E+09  1.07827E+13
      2724    13615.0  5.50139E+09  1.08102E+13
      2725    13620.0  5.51302E+09  1.08378E+13
      2726    13625.0  5.52430E+09  1.08654E+13
      2727    13630.0  5.53897E+09  1.08931E+13
      2728    13635.0  5.55009E+09  1.09208E+13
      2729    13640.0  5.56374E+09  1.09487E+13
      2730    13645.0  5.57734E+09  1.09765E+13
      2731    13650.0  5.58802E+09  1.10045E+13
      2732    13655.0  5.59963E+09  1.10325E+13
      2733    13660.0  5.61430E+09  1.10606E+13
      2734    13665.0  5.62633E+09  1.10887E+13
      2735    13670.0  5.63948E+09  1.11169E+13
      2736    13675.0  5.65167E+09  1.11451E+13
      2737    13680.0  5.66436E+09  1.11735E+13
      2738    13685.0  5.67730E+09  1.12019E+13
      2739    13690.0  5.68889E+09  1.12303E+13
      2740    13695.0  5.70326E+09  1.12588E+13
      2741    13700.0  5.71602E+09  1.12874E+13
      2742    13705.0  5.72744E+09  1.13160E+13
      2743    13710.0  5.74271E+09  1.13447E+13
      2744    13715.0  5.75459E+09  1.13735E+13
      2745    13720.0  5.76817E+09  1.14024E+13
      2746    13725.0  5.77961E+09  1.14313E+13
      2747    13730.0  5.79445E+09  1.14602E+13
      2748    13735.0  5.80660E+09  1.14893E+13
      2749    13740.0  5.81859E+09  1.15184E+13
      2750    13745.0  5.83292E+09  1.15475E+13
      2751    13750.0  5.84612E+09  1.15767E+13
      2752    13755.0  5.85882E+09  1.16060E+13
      2753    13760.0  5.87059E+09  1.16354E+13
      2754    13765.0  5.88624E+09  1.16648E+13
      2755    13770.0  5.89624E+09  1.16943E+13
      2756    13775.0  5.91161E+09  1.17239E+13
      2757    13780.0  5.92568E+09  1.17535E+13
      2758    13785.0  5.93992E+09  1.17832E+13
      2759    13790.0  5.95091E+09  1.18129E+13
      2760    13795.0  5.96429E+09  1.18428E+13
      2761    13800.0  5.97848E+09  1.18727E+13
      2762    13805.0  5.99107E+09  1.19026E+13
      2763    13810.0  6.00436E+09  1.19326E+13
      2764    13815.0  6.01993E+09  1.19627E+13
      2765    13820.0  6.03177E+09  1.19929E+13
      2766    13825.0  6.04286E+09  1.20231E+13
      2767    13830.0  6.06080E+09  1.20534E+13
      2768    13835.0  6.07199E+09  1.20838E+13
      2769    13840.0  6.08546E+09  1.21142E+13
      2770    13845.0  6.09942E+09  1.21447E+13
      2771    13850.0  6.11340E+09  1.21753E+13
      2772    13855.0  6.12795E+09  1.22059E+13
      2773    13860.0  6.14009E+09  1.22366E+13
      2774    13865.0  6.15549E+09  1.22674E+13
      2775    13870.0  6.16793E+09  1.22982E+13
      2776    13875.0  6.18009E+09  1.23291E+13
      2777    13880.0  6.19589E+09  1.23601E+13
      2778    13885.0  6.21043E+09  1.23912E+13
      2779    13890.0  6.22293E+09  1.24223E+13
      2780    13895.0  6.23619E+09  1.24535E+13
      2781    13900.0  6.25247E+09  1.24847E+13
      2782    13905.0  6.26396E+09  1.25160E+13
      2783    13910.0  6.27809E+09  1.25474E+13
      2784    13915.0  6.29249E+09  1.25789E+13
      2785    13920.0  6.30725E+09  1.26104E+13
      2786    13925.0  6.32129E+09  1.26420E+13
      2787    13930.0  6.33450E+09  1.26737E+13
      2788    13935.0  6.35044E+09  1.27055E+13
      2789    13940.0  6.36195E+09  1.27373E+13
      2790    13945.0  6.37617E+09  1.27691E+13
      2791    13950.0  6.39225E+09  1.28011E+13
      2792    13955.0  6.40665E+09  1.28331E+13
      2793    13960.0  6.41880E+09  1.28652E+13
      2794    13965.0  6.43512E+09  1.28974E+13
      2795    13970.0  6.44789E+09  1.29297E+13
      2796    13975.0  6.46397E+09  1.29620E+13
      2797    13980.0  6.47592E+09  1.29944E+13
      2798    13985.0  6.49293E+09  1.30268E+13
      2799    13990.0  6.50557E+09  1.30593E+13
      2800    13995.0  6.51849E+09  1.30919E+13
      2801    14000.0  6.53504E+09  1.31246E+13
      2802    14005.0  6.54968E+09  1.31574E+13
      2803    14010.0  6.56295E+09  1.31902E+13
      2804    14015.0  6.57703E+09  1.32231E+13
      2805    14020.0  6.59328E+09  1.32560E+13
      2806    14025.0  6.60722E+09  1.32891E+13
      2807    14030.0  6.62186E+09  1.33222E+13
      2808    14035.0  6.63763E+09  1.33554E+13
      2809    14040.0  6.65190E+09  1.33886E+13
      2810    14045.0  6.66427E+09  1.34219E+13
      2811    14050.0  6.68052E+09  1.34553E+13
      2812    14055.0  6.69636E+09  1.34888E+13
      2813    14060.0  6.71051E+09  1.35224E+13
      2814    14065.0  6.72400E+09  1.35560E+13
      2815    14070.0  6.74160E+09  1.35897E+13
      2816    14075.0  6.75373E+09  1.36235E+13
      2817    14080.0  6.76953E+09  1.36573E+13
      2818    14085.0  6.78450E+09  1.36912E+13
      2819    14090.0  6.80029E+09  1.37252E+13
      2820    14095.0  6.81399E+09  1.37593E+13
      2821    14100.0  6.82955E+09  1.37935E+13
      2822    14105.0  6.84538E+09  1.38277E+13
      2823    14110.0  6.85974E+09  1.38620E+13
      2824    14115.0  6.87376E+09  1.38964E+13
      2825    14120.0  6.89038E+09  1.39308E+13
      2826    14125.0  6.90574E+09  1.39653E+13
      2827    14130.0  6.91881E+09  1.39999E+13
      2828    14135.0  6.93629E+09  1.40346E+13
      2829    14140.0  6.95033E+09  1.40694E+13
      2830    14145.0  6.96640E+09  1.41042E+13
      2831    14150.0  6.98127E+09  1.41391E+13
      2832    14155.0  6.99661E+09  1.41741E+13
      2833    14160.0  7.01188E+09  1.42091E+13
      2834    14165.0  7.02680E+09  1.42443E+13
      2835    14170.0  7.04245E+09  1.42795E+13
      2836    14175.0  7.06020E+09  1.43148E+13
      2837    14180.0  7.07303E+09  1.43502E+13
      2838    14185.0  7.08763E+09  1.43856E+13
      2839    14190.0  7.10626E+09  1.44211E+13
      2840    14195.0  7.11927E+09  1.44567E+13
      2841    14200.0  7.13630E+09  1.44924E+13
      2842    14205.0  7.15259E+09  1.45282E+13
      2843    14210.0  7.16710E+09  1.45640E+13
      2844    14215.0  7.18333E+09  1.45999E+13
      2845    14220.0  7.19890E+09  1.46359E+13
      2846    14225.0  7.21511E+09  1.46720E+13
      2847    14230.0  7.23171E+09  1.47081E+13
      2848    14235.0  7.24376E+09  1.47444E+13
      2849    14240.0  7.26280E+09  1.47807E+13
      2850    14245.0  7.27777E+09  1.48171E+13
      2851    14250.0  7.29305E+09  1.48535E+13
      2852    14255.0  7.30957E+09  1.48901E+13
      2853    14260.0  7.32670E+09  1.49267E+13
      2854    14265.0  7.33913E+09  1.49634E+13
      2855    14270.0  7.35801E+09  1.50002E+13
      2856    14275.0  7.37395E+09  1.50371E+13
      2857    14280.0  7.39053E+09  1.50740E+13
      2858    14285.0  7.40589E+09  1.51111E+13
      2859    14290.0  7.42191E+09  1.51482E+13
      2860    14295.0  7.43974E+09  1.51854E+13
      2861    14300.0  7.45246E+09  1.52226E+13
      2862    14305.0  7.47038E+09  1.52600E+13
      2863    14310.0  7.48874E+09  1.52974E+13
      2864    14315.0  7.50293E+09  1.53349E+13
      2865    14320.0  7.51948E+09  1.53725E+13
      2866    14325.0  7.53815E+09  1.54102E+13
      2867    14330.0  7.55033E+09  1.54480E+13
      2868    14335.0  7.56879E+09  1.54858E+13
      2869    14340.0  7.58535E+09  1.55237E+13
      2870    14345.0  7.60260E+09  1.55618E+13
      2871    14350.0  7.61778E+09  1.55998E+13
      2872    14355.0  7.63448E+09  1.56380E+13
      2873    14360.0  7.65208E+09  1.56763E+13
      2874    14365.0  7.66825E+09  1.57146E+13
      2875    14370.0  7.68374E+09  1.57530E+13
      2876    14375.0  7.70257E+09  1.57916E+13
      2877    14380.0  7.71671E+09  1.58301E+13
      2878    14385.0  7.73470E+09  1.58688E+13
      2879    14390.0  7.75230E+09  1.59076E+13
      2880    14395.0  7.77047E+09  1.59464E+13
      2881    14400.0  7.78483E+09  1.59853E+13
      2882    14405.0  7.80102E+09  1.60244E+13
      2883    14410.0  7.81826E+09  1.60634E+13
      2884    14415.0  7.83603E+09  1.61026E+13
      2885    14420.0  7.85331E+09  1.61419E+13
      2886    14425.0  7.87130E+09  1.61812E+13
      2887    14430.0  7.88861E+09  1.62207E+13
      2888    14435.0  7.90124E+09  1.62602E+13
      2889    14440.0  7.92184E+09  1.62998E+13
      2890    14445.0  7.93863E+09  1.63395E+13
      2891    14450.0  7.95638E+09  1.63793E+13
      2892    14455.0  7.97220E+09  1.64191E+13
      2893    14460.0  7.99089E+09  1.64591E+13
      2894    14465.0  8.00804E+09  1.64991E+13
      2895    14470.0  8.02431E+09  1.65393E+13
      2896    14475.0  8.04090E+09  1.65795E+13
      2897    14480.0  8.05969E+09  1.66198E+13
      2898    14485.0  8.07556E+09  1.66601E+13
      2899    14490.0  8.09321E+09  1.67006E+13
      2900    14495.0  8.11343E+09  1.67412E+13
      2901    14500.0  8.12859E+09  1.67818E+13
      2902    14505.0  8.14632E+09  1.68225E+13
      2903    14510.0  8.16418E+09  1.68634E+13
      2904    14515.0  8.18162E+09  1.69043E+13
      2905    14520.0  8.19781E+09  1.69453E+13
      2906    14525.0  8.21655E+09  1.69863E+13
      2907    14530.0  8.23502E+09  1.70275E+13
      2908    14535.0  8.25433E+09  1.70688E+13
      2909    14540.0  8.26934E+09  1.71101E+13
      2910    14545.0  8.28909E+09  1.71516E+13
      2911    14550.0  8.30545E+09  1.71931E+13
      2912    14555.0  8.32203E+09  1.72347E+13
      2913    14560.0  8.34174E+09  1.72764E+13
      2914    14565.0  8.36239E+09  1.73182E+13
      2915    14570.0  8.37648E+09  1.73601E+13
      2916    14575.0  8.39574E+09  1.74021E+13
      2917    14580.0  8.41328E+09  1.74442E+13
      2918    14585.0  8.43118E+09  1.74863E+13
      2919    14590.0  8.44893E+09  1.75286E+13
      2920    14595.0  8.46795E+09  1.75709E+13
      2921    14600.0  8.48718E+09  1.76133E+13
      2922    14605.0  8.50141E+09  1.76559E+13
      2923    14610.0  8.52302E+09  1.76985E+13
      2924    14615.0  8.54176E+09  1.77412E+13
      2925    14620.0  8.55922E+09  1.77840E+13
      2926    14625.0  8.57460E+09  1.78268E+13
      2927    14630.0  8.59690E+09  1.78698E+13
      2928    14635.0  8.61293E+09  1.79129E+13
      2929    14640.0  8.63276E+09  1.79561E+13
      2930    14645.0  8.65336E+09  1.79993E+13
      2931    14650.0  8.67032E+09  1.80427E+13
      2932    14655.0  8.68600E+09  1.80861E+13
      2933    14660.0  8.70552E+09  1.81296E+13
      2934    14665.0  8.72477E+09  1.81733E+13
      2935    14670.0  8.74494E+09  1.82170E+13
      2936    14675.0  8.76151E+09  1.82608E+13
      2937    14680.0  8.78200E+09  1.83047E+13
      2938    14685.0  8.80142E+09  1.83487E+13
      2939    14690.0  8.81670E+09  1.83928E+13
      2940    14695.0  8.83908E+09  1.84370E+13
      2941    14700.0  8.85615E+09  1.84813E+13
      2942    14705.0  8.87490E+09  1.85256E+13
      2943    14710.0  8.89402E+09  1.85701E+13
      2944    14715.0  8.91368E+09  1.86147E+13
      2945    14720.0  8.93315E+09  1.86593E+13
      2946    14725.0  8.95058E+09  1.87041E+13
      2947    14730.0  8.96958E+09  1.87490E+13
      2948    14735.0  8.99032E+09  1.87939E+13
      2949    14740.0  9.00725E+09  1.88389E+13
      2950    14745.0  9.02769E+09  1.88841E+13
      2951    14750.0  9.04727E+09  1.89293E+13
      2952    14755.0  9.06741E+09  1.89746E+13
      2953    14760.0  9.08419E+09  1.90201E+13
      2954    14765.0  9.10476E+09  1.90656E+13
      2955    14770.0  9.12479E+09  1.91112E+13
      2956    14775.0  9.14129E+09  1.91569E+13
      2957    14780.0  9.16250E+09  1.92027E+13
      2958    14785.0  9.18420E+09  1.92487E+13
      2959    14790.0  9.20486E+09  1.92947E+13
      2960    14795.0  9.21955E+09  1.93408E+13
      2961    14800.0  9.24264E+09  1.93870E+13
      2962    14805.0  9.25930E+09  1.94333E+13
      2963    14810.0  9.27908E+09  1.94797E+13
      2964    14815.0  9.30161E+09  1.95262E+13
      2965    14820.0  9.32130E+09  1.95728E+13
      2966    14825.0  9.33827E+09  1.96195E+13
      2967    14830.0  9.35890E+09  1.96663E+13
      2968    14835.0  9.37918E+09  1.97132E+13
      2969    14840.0  9.39957E+09  1.97602E+13
      2970    14845.0  9.41609E+09  1.98073E+13
      2971    14850.0  9.43846E+09  1.98545E+13
      2972    14855.0  9.46112E+09  1.99018E+13
      2973    14860.0  9.47663E+09  1.99491E+13
      2974    14865.0  9.50148E+09  1.99966E+13
      2975    14870.0  9.51998E+09  2.00442E+13
      2976    14875.0  9.53695E+09  2.00919E+13
      2977    14880.0  9.55834E+09  2.01397E+13
      2978    14885.0  9.57986E+09  2.01876E+13
      2979    14890.0  9.60107E+09  2.02356E+13
      2980    14895.0  9.61944E+09  2.02837E+13
      2981    14900.0  9.64064E+09  2.03319E+13
      2982    14905.0  9.66211E+09  2.03802E+13
      2983    14910.0  9.67900E+09  2.04286E+13
      2984    14915.0  9.70004E+09  2.04771E+13
      2985    14920.0  9.72232E+09  2.05257E+13
      2986    14925.0  9.74372E+09  2.05745E+13
      2987    14930.0  9.76145E+09  2.06233E+13
      2988    14935.0  9.78645E+09  2.06722E+13
      2989    14940.0  9.80358E+09  2.07212E+13
      2990    14945.0  9.82278E+09  2.07703E+13
      2991    14950.0  9.84562E+09  2.08196E+13
      2992    14955.0  9.86595E+09  2.08689E+13
      2993    14960.0  9.88819E+09  2.09183E+13
      2994    14965.0  9.90697E+09  2.09679E+13
      2995    14970.0  9.92942E+09  2.10175E+13
      2996    14975.0  9.95042E+09  2.10673E+13
      2997    14980.0  9.96880E+09  2.11171E+13
      2998    14985.0  9.99191E+09  2.11671E+13
      2999    14990.0  1.00140E+10  2.12171E+13
      3000    14995.0  1.00310E+10  2.12673E+13
      3001        0.0  3.00000E+00  1.50000E+01
      3002       80.1  9.08000E+02  3.02520E+04
      3003      160.2  2.78220E+03  1.79143E+05
      3004      240.2  5.34860E+03  5.06099E+05
      3005      320.3  8.39460E+03  1.06432E+06
      3006      400.4  1.26442E+04  1.93321E+06
      3007      480.5  1.84508E+04  3.21267E+06
      3008      560.6  2.42950E+04  4.98460E+06
      3009      640.6  3.42278E+04  7.34866E+06
      3010      720.7  4.15270E+04  1.03873E+07
      3011      800.8  5.01630E+04  1.41878E+07
      3012      880.9  6.31240E+04  1.88723E+07
      3013      961.0  7.94618E+04  2.46003E+07
      3014     1041.0  9.24266E+04  3.15190E+07
      3015     1121.1  1.14738E+05  3.98991E+07
      3016     1201.2  1.33598E+05  4.99453E+07
      3017     1281.3  1.60787E+05  6.19278E+07
      3018     1361.4  1.90462E+05  7.61745E+07
      3019     1441.4  2.25772E+05  9.30746E+07
      3020     1521.5  2.65740E+05  1.13018E+08
      3021     1601.6  3.14021E+05  1.36499E+08
      3022     1681.7  3.68507E+05  1.63894E+08
      3023     1761.8  4.21065E+05  1.95719E+08
      3024     1841.8  4.89655E+05  2.32565E+08
      3025     1921.9  5.58509E+05  2.75024E+08
      3026     2002.0  6.44054E+05  3.23765E+08
      3027     2082.1  7.40507E+05  3.79452E+08
      3028     2162.2  8.30451E+05  4.42871E+08
      3029     2242.2  9.45322E+05  5.14762E+08
      3030     2322.3  1.07678E+06  5.96167E+08
      3031     2402.4  1.21312E+06  6.88158E+08
      3032     2482.5  1.35850E+06  7.91795E+08
      3033     2562.6  1.53312E+06  9.08135E+08
      3034     2642.6  1.70543E+06  1.03861E+09
      3035     2722.7  1.92556E+06  1.18472E+09
      3036     2802.8  2.15196E+06  1.34781E+09
      3037     2882.9  2.37796E+06  1.52961E+09
      3038     2963.0  2.65553E+06  1.73195E+09
      3039     3043.0  2.96889E+06  1.95669E+09
      3040     3123.1  3.25767E+06  2.20560E+09
      3041     3203.2  3.57543E+06  2.48085E+09
      3042     3283.3  3.97244E+06  2.78464E+09
      3043     3363.4  4.40045E+06  3.11964E+09
      3044     3443.4  4.83448E+06  3.48840E+09
      3045     3523.5  5.32266E+06  3.89368E+09
      3046     3603.6  5.78954E+06  4.33813E+09
      3047     3683.7  6.35362E+06  4.82565E+09
      3048     3763.8  6.94362E+06  5.35914E+09
      3049     3843.8  7.61550E+06  5.94298E+09
      3050     3923.9  8.29647E+06  6.58034E+09
      3051     4004.0  9.07813E+06  7.27587E+09
      3052     4084.1  9.91028E+06  8.03370E+09
      3053     4164.2  1.07706E+07  8.85866E+09
      3054     4244.2  1.16637E+07  9.75552E+09
      3055     4324.3  1.26641E+07  1.07297E+10
      3056     4404.4  1.37766E+07  1.17869E+10
      3057     4484.5  1.49192E+07  1.29330E+10
      3058     4564.6  1.61172E+07  1.41739E+10
      3059     4644.6  1.73742E+07  1.55161E+10
      3060     4724.7  1.87995E+07  1.69666E+10
      3061     4804.8  2.03556E+07  1.85338E+10
      3062     4884.9  2.19376E+07  2.02249E+10
      3063     4965.0  2.36003E+07  2.20481E+10
      3064     5045.0  2.55597E+07  2.41403E+10
      3065     5125.1  2.74393E+07  2.62646E+10
      3066     5205.2  2.95203E+07  2.85502E+10
      3067     5285.3  3.17295E+07  3.10063E+10
      3068     5365.4  3.40339E+07  3.36444E+10
      3069     5445.4  3.66486E+07  3.64765E+10
      3070     5525.5  3.92149E+07  3.95139E+10
      3071     5605.6  4.19769E+07  4.27689E+10
      3072     5685.7  4.48493E+07  4.62549E+10
      3073     5765.8  4.81698E+07  4.99872E+10
      3074     5845.8  5.15813E+07  5.39792E+10
      3075     5925.9  5.50008E+07  5.82468E+10
      3076     6006.0  5.87826E+07  6.28056E+10
      3077     6086.1  6.26897E+07  6.76727E+10
      3078     6166.2  6.69655E+07  7.28666E+10
      3079     6246.2  7.12656E+07  7.84055E+10
      3080     6326.3  7.60133E+07  8.43091E+10
      3081     6406.4  8.09506E+07  9.05973E+10
      3082     6486.5  8.61445E+07  9.72930E+10
      3083     6566.6  9.18312E+07  1.04418E+11
      3084     6646.6  9.74375E+07  1.11995E+11
      3085     6726.7  1.03496E+08  1.20049E+11
      3086     6806.8  1.09995E+08  1.28606E+11
      3087     6886.9  1.16929E+08  1.37694E+11
      3088     6967.0  1.24074E+08  1.47340E+11
      3089     7047.0  1.31431E+08  1.57573E+11
      3090     7127.1  1.39357E+08  1.68424E+11
      3091     7207.2  1.47714E+08  1.79924E+11
      3092     7287.3  1.56488E+08  1.92110E+11
      3093     7367.4  1.65596E+08  2.05011E+11
      3094     7447.4  1.75346E+08  2.18667E+11
      3095     7527.5  1.85647E+08  2.33117E+11
      3096     7607.6  1.96066E+08  2.48397E+11
      3097     7687.7  2.07306E+08  2.64552E+11
      3098     7767.8  2.18721E+08  2.81621E+11
      3099     7847.8  2.31200E+08  2.99652E+11
      3100     7927.9  2.43987E+08  3.18690E+11
      3101     8008.0  2.57710E+08  3.38786E+11
      3102     8088.1  2.71766E+08  3.59985E+11
      3103     8168.2  2.86417E+08  3.82343E+11
      3104     8248.2  3.02130E+08  4.05915E+11
      3105     8328.3  3.18236E+08  4.30755E+11
      3106     8408.4  3.35302E+08  4.56925E+11
      3107     8488.5  3.52657E+08  4.84483E+11
      3108     8568.6  3.71387E+08  5.13496E+11
      3109     8648.6  3.90945E+08  5.44030E+11
      3110     8728.7  4.10715E+08  5.76149E+11
      3111     8808.8  4.32072E+08  6.09928E+11
      3112     8888.9  4.54432E+08  6.45442E+11
      3113     8969.0  4.77686E+08  6.82765E+11
      3114     9049.0  5.01836E+08  7.21979E+11
      3115     9129.1  5.26704E+08  7.63167E+11
      3116     9209.2  5.52586E+08  8.06408E+11
      3117     9289.3  5.79554E+08  8.51799E+11
      3118     9369.4  6.09031E+08  8.99431E+11
      3119     9449.4  6.38711E+08  9.49397E+11
      3120     9529.5  6.69658E+08  1.00180E+12
      3121     9609.6  7.02192E+08  1.05673E+12
      3122     9689.7  7.35752E+08  1.11431E+12
      3123     9769.8  7.70901E+08  1.17464E+12
      3124     9849.8  8.06661E+08  1.23783E+12
      3125     9929.9  8.44912E+08  1.30401E+12
      3126    10010.0  8.87610E+08  1.37773E+12
      3127    10090.1  9.28475E+08  1.45045E+12
      3128    10170.2  9.70915E+08  1.52654E+12
      3129    10250.3  1.01608E+09  1.60614E+12
      3130    10330.3  1.06253E+09  1.68938E+12
      3131    10410.4  1.11040E+09  1.77642E+12
      3132    10490.5  1.16074E+09  1.86740E+12
      3133    10570.6  1.21299E+09  1.96247E+12
      3134    10650.7  1.26715E+09  2.06179E+12
      3135    10730.7  1.32304E+09  2.16553E+12
      3136    10810.8  1.38222E+09  2.27386E+12
      3137    10890.9  1.44233E+09  2.38696E+12
      3138    10971.0  1.50554E+09  2.50501E+12
      3139    11051.1  1.57102E+09  2.62819E+12
      3140    11131.1  1.63848E+09  2.75670E+12
      3141    11211.2  1.70858E+09  2.89074E+12
      3142    11291.3  1.78104E+09  3.03051E+12
      3143    11371.4  1.85739E+09  3.17624E+12
      3144    11451.5  1.93651E+09  3.32813E+12
      3145    11531.5  2.01672E+09  3.48642E+12
      3146    11611.6  2.10141E+09  3.65134E+12
      3147    11691.7  2.18852E+09  3.82313E+12
      3148    11771.8  2.27950E+09  4.00204E+12
      3149    11851.9  2.37259E+09  4.18832E+12
      3150    11931.9  2.47005E+09  4.38225E+12
      3151    12012.0  2.57014E+09  4.58408E+12
      3152    12092.1  2.67406E+09  4.79412E+12
      3153    12172.2  2.78288E+09  5.01263E+12
      3154    12252.3  2.89304E+09  5.23992E+12
      3155    12332.3  3.00832E+09  5.47629E+12
      3156    12412.4  3.12903E+09  5.72207E+12
      3157    12492.5  3.25301E+09  5.97759E+12
      3158    12572.6  3.38015E+09  6.24315E+12
      3159    12652.7  3.51083E+09  6.51913E+12
      3160    12732.7  3.64926E+09  6.80588E+12
      3161    12812.8  3.78978E+09  7.10374E+12
      3162    12892.9  3.93573E+09  7.41312E+12
      3163    12973.0  4.08720E+09  7.73437E+12
      3164    13053.1  4.24366E+09  8.06792E+12
      3165    13133.1  4.40402E+09  8.41417E+12
      3166    13213.2  4.56951E+09  8.77353E+12
      3167    13293.3  4.74355E+09  9.14645E+12
      3168    13373.4  4.92002E+09  9.53336E+12
      3169    13453.5  5.10312E+09  9.93472E+12
      3170    13533.5  5.29394E+09  1.03510E+13
      3171    13613.6  5.48916E+09  1.07827E+13
      3172    13693.7  5.68889E+09  1.12303E+13
      3173    13773.8  5.89624E+09  1.16943E+13
      3174    13853.9  6.11340E+09  1.21753E+13
      3175    13933.9  6.33450E+09  1.26737E+13
      3176    14014.0  6.56295E+09  1.31902E+13
      3177    14094.1  6.80029E+09  1.37252E+13
      3178    14174.2  7.04245E+09  1.42795E+13
      3179    14254.3  7.29305E+09  1.48535E+13
      3180    14334.3  7.55033E+09  1.54480E+13
      3181    14414.4  7.81826E+09  1.60634E+13
      3182    14494.5  8.09321E+09  1.67006E+13
      3183    14574.6  8.37648E+09  1.73601E+13
      3184    14654.7  8.67032E+09  1.80427E+13
      3185    14734.7  8.96958E+09  1.87490E+13
      3186    14814.8  9.27908E+09  1.94797E+13
      3187    14894.9  9.60107E+09  2.02356E+13
      3188    14975.0  9.92942E+09  2.10175E+13
      3189    15055.1  1.02897E+10  2.18776E+13
      3190    15135.1  1.06368E+10  2.27155E+13
      3191    15215.2  1.09980E+10  2.35818E+13
      3192    15295.3  1.13725E+10  2.44773E+13
      3193    15375.4  1.17499E+10  2.54030E+13
      3194    15455.5  1.21431E+10  2.63596E+13
      3195    15535.5  1.25484E+10  2.73482E+13
      3196    15615.6  1.29637E+10  2.83695E+13
      3197    15695.7  1.33908E+10  2.94247E+13
      3198    15775.8  1.38298E+10  3.05146E+13
      3199    15855.9  1.42846E+10  3.16402E+13
      3200    15935.9  1.47487E+10  3.28026E+13
      3201    16016.0  1.52296E+10  3.40029E+13
      3202    16096.1  1.57227E+10  3.52421E+13
      3203    16176.2  1.62279E+10  3.65212E+13
      3204    16256.3  1.67468E+10  3.78415E+13
      3205    16336.3  1.72853E+10  3.92041E+13
      3206    16416.4  1.78377E+10  4.06102E+13
      3207    16496.5  1.83970E+10  4.20610E+13
      3208    16576.6  1.89813E+10  4.35577E+13
      3209    16656.7  1.95825E+10  4.51016E+13
      3210    16736.7  2.01920E+10  4.66940E+13
      3211    16816.8  2.08212E+10  4.83363E+13
      3212    16896.9  2.14746E+10  5.00298E+13
      3213    16977.0  2.21421E+10  5.17759E+13
      3214    17057.1  2.28200E+10  5.35760E+13
      3215    17137.1  2.35257E+10  5.54317E+13
      3216    17217.2  2.42499E+10  5.73443E+13
      3217    17297.3  2.49858E+10  5.93155E+13
      3218    17377.4  2.57442E+10  6.13468E+13
      3219    17457.5  2.65294E+10  6.34398E+13
      3220    17537.5  2.73300E+10  6.55961E+13
      3221    17617.6  2.81512E+10  6.78175E+13
      3222    17697.7  2.89999E+10  7.01057E+13
      3223    17777.8  2.98676E+10  7.24623E+13
      3224    17857.9  3.07492E+10  7.48892E+13
      3225    17937.9  3.16647E+10  7.73883E+13
      3226    18018.0  3.26075E+10  7.99614E+13
      3227    18098.1  3.35635E+10  8.26105E+13
      3228    18178.2  3.45473E+10  8.53374E+13
      3229    18258.3  3.55608E+10  8.81443E+13
      3230    18338.3  3.65994E+10  9.10331E+13
      3231    18418.4  3.76558E+10  9.40060E+13
      3232    18498.5  3.87516E+10  9.70652E+13
      3233    18578.6  3.98733E+10  1.00213E+14
      3234    18658.7  4.10132E+10  1.03451E+14
      3235    18738.7  4.21923E+10  1.06782E+14
      3236    18818.8  4.34025E+10  1.10208E+14
      3237    18898.9  4.46355E+10  1.13733E+14
      3238    18979.0  4.58910E+10  1.17357E+14
      3239    19059.1  4.71944E+10  1.21084E+14
      3240    19139.1  4.85315E+10  1.24916E+14
      3241    19219.2  4.98796E+10  1.28855E+14
      3242    19299.3  5.12855E+10  1.32905E+14
      3243    19379.4  5.27229E+10  1.37069E+14
      3244    19459.5  5.41838E+10  1.41348E+14
      3245    19539.5  5.56774E+10  1.45746E+14
      3246    19619.6  5.72215E+10  1.50266E+14
      3247    19699.7  5.87962E+10  1.54910E+14
      3248    19779.8  6.04072E+10  1.59682E+14
      3249    19859.9  6.20630E+10  1.64584E+14
      3250    19939.9  6.37559E+10  1.69621E+14
      3251    20020.0  6.56005E+10  1.75122E+14
      3252    20100.1  6.73663E+10  1.80445E+14
      3253    20180.2  6.91824E+10  1.85911E+14
      3254    20260.3  7.10511E+10  1.91525E+14
      3255    20340.3  7.29585E+10  1.97290E+14
      3256    20420.4  7.48992E+10  2.03209E+14
      3257    20500.5  7.69010E+10  2.09286E+14
      3258    20580.6  7.89520E+10  2.15525E+14
      3259    20660.7  8.10313E+10  2.21929E+14
      3260    20740.7  8.31707E+10  2.28503E+14
      3261    20820.8  8.53744E+10  2.35250E+14
      3262    20900.9  8.76097E+10  2.42174E+14
      3263    20981.0  8.98836E+10  2.49280E+14
      3264    21061.1  9.22416E+10  2.56571E+14
      3265    21141.1  9.46489E+10  2.64052E+14
      3266    21221.2  9.70893E+10  2.71728E+14
      3267    21301.3  9.96025E+10  2.79602E+14
      3268    21381.4  1.02175E+11  2.87679E+14
      3269    21461.5  1.04793E+11  2.95964E+14
      3270    21541.5  1.07475E+11  3.04462E+14
      3271    21621.6  1.10232E+11  3.13176E+14
      3272    21701.7  1.13035E+11  3.22113E+14
      3273    21781.8  1.15887E+11  3.31278E+14
      3274    21861.9  1.18839E+11  3.40674E+14
      3275    21941.9  1.21845E+11  3.50308E+14
      3276    22022.0  1.24892E+11  3.60185E+14
      3277    22102.1  1.28027E+11  3.70310E+14
      3278    22182.2  1.31248E+11  3.80688E+14
      3279    22262.3  1.34515E+11  3.91326E+14
      3280    22342.3  1.37842E+11  4.02228E+14
      3281    22422.4  1.41282E+11  4.13402E+14
      3282    22502.5  1.44780E+11  4.24852E+14
      3283    22582.6  1.48333E+11  4.36585E+14
      3284    22662.7  1.51988E+11  4.48606E+14
      3285    22742.7  1.55722E+11  4.60923E+14
      3286    22822.8  1.59517E+11  4.73541E+14
      3287    22902.9  1.63401E+11  4.86468E+14
      3288    22983.0  1.67393E+11  4.99709E+14
      3289    23063.1  1.71445E+11  5.13271E+14
      3290    23143.1  1.75573E+11  5.27162E+14
      3291    23223.2  1.79819E+11  5.41388E+14
      3292    23303.3  1.84157E+11  5.55956E+14
      3293    23383.4  1.88553E+11  5.70875E+14
      3294    23463.5  1.93049E+11  5.86150E+14
      3295    23543.5  1.97681E+11  6.01790E+14
      3296    23623.6  2.02375E+11  6.17802E+14
      3297    23703.7  2.07158E+11  6.34195E+14
      3298    23783.8  2.12070E+11  6.50976E+14
      3299    23863.9  2.17080E+11  6.68153E+14
      3300    23943.9  2.22159E+11  6.85734E+14
      3301    24024.0  2.27388E+11  7.03729E+14
      3302    24104.1  2.32726E+11  7.22145E+14
      3303    24184.2  2.38133E+11  7.40991E+14
      3304    24264.3  2.43660E+11  7.60276E+14
      3305    24344.3  2.49348E+11  7.80010E+14
      3306    24424.4  2.55114E+11  8.00200E+14
      3307    24504.5  2.60976E+11  8.20858E+14
      3308    24584.6  2.66992E+11  8.41991E+14
      3309    24664.7  2.73144E+11  8.63611E+14
      3310    24744.7  2.79381E+11  8.85726E+14
      3311    24824.8  2.85749E+11  9.08347E+14
      3312    24904.9  2.92286E+11  9.31484E+14
      3313    24985.0  2.98931E+11  9.55147E+14
      3314    25065.1  3.06124E+11  9.80879E+14
      3315    25145.1  3.13002E+11  1.00566E+15
      3316    25225.2  3.20097E+11  1.03100E+15
      3317    25305.3  3.27319E+11  1.05692E+15
      3318    25385.4  3.34619E+11  1.08341E+15
      3319    25465.5  3.42114E+11  1.11050E+15
      3320    25545.5  3.49782E+11  1.13819E+15
      3321    25625.6  3.57539E+11  1.16650E+15
      3322    25705.7  3.65457E+11  1.19544E+15
      3323    25785.8  3.73581E+11  1.22503E+15
      3324    25865.9  3.81837E+11  1.25526E+15
      3325    25945.9  3.90224E+11  1.28616E+15
      3326    26026.0  3.98819E+11  1.31775E+15
      3327    26106.1  4.07593E+11  1.35002E+15
      3328    26186.2  4.16483E+11  1.38301E+15
      3329    26266.3  4.25539E+11  1.41671E+15
      3330    26346.3  4.34848E+11  1.45115E+15
      3331    26426.4  4.44291E+11  1.48634E+15
      3332    26506.5  4.53876E+11  1.52229E+15
      3333    26586.6  4.63699E+11  1.55901E+15
      3334    26666.7  4.73723E+11  1.59653E+15
      3335    26746.7  4.83860E+11  1.63486E+15
      3336    26826.8  4.94229E+11  1.67401E+15
      3337    26906.9  5.04854E+11  1.71400E+15
      3338    26987.0  5.15595E+11  1.75484E+15
      3339    27067.1  5.26564E+11  1.79655E+15
      3340    27147.1  5.37786E+11  1.83916E+15
      3341    27227.2  5.49180E+11  1.88266E+15
      3342    27307.3  5.60746E+11  1.92708E+15
      3343    27387.4  5.72587E+11  1.97245E+15
      3344    27467.5  5.84671E+11  2.01877E+15
      3345    27547.5  5.96911E+11  2.06606E+15
      3346    27627.6  6.09392E+11  2.11434E+15
      3347    27707.7  6.22157E+11  2.16363E+15
      3348    27787.8  6.35121E+11  2.21395E+15
      3349    27867.9  6.48283E+11  2.26532E+15
      3350    27947.9  6.61759E+11  2.31775E+15
      3351    28028.0  6.75480E+11  2.37128E+15
      3352    28108.1  6.89395E+11  2.42590E+15
      3353    28188.2  7.03569E+11  2.48166E+15
      3354    28268.3  7.18087E+11  2.53856E+15
      3355    28348.3  7.32776E+11  2.59662E+15
      3356    28428.4  7.47739E+11  2.65588E+15
      3357    28508.5  7.63041E+11  2.71635E+15
      3358    28588.6  7.78584E+11  2.77805E+15
      3359    28668.7  7.94344E+11  2.84100E+15
      3360    28748.7  8.10447E+11  2.90524E+15
      3361    28828.8  8.26896E+11  2.97077E+15
      3362    28908.9  8.43552E+11  3.03762E+15
      3363    28989.0  8.60504E+11  3.10583E+15
      3364    29069.1  8.77840E+11  3.17540E+15
      3365    29149.1  8.95413E+11  3.24637E+15
      3366    29229.2  9.13268E+11  3.31876E+15
      3367    29309.3  9.31509E+11  3.39260E+15
      3368    29389.4  9.50090E+11  3.46790E+15
      3369    29469.5  9.68873E+11  3.54471E+15
      3370    29549.5  9.88090E+11  3.62303E+15
      3371    29629.6  1.00770E+12  3.70291E+15
      3372    29709.7  1.02753E+12  3.78437E+15
      3373    29789.8  1.04770E+12  3.86743E+15
      3374    29869.9  1.06836E+12  3.95212E+15
      3375    29949.9  1.08931E+12  4.03847E+15
      3376    30030.0  1.11195E+12  4.13208E+15
      3377    30110.1  1.13355E+12  4.22195E+15
      3378    30190.2  1.15565E+12  4.31357E+15
      3379    30270.3  1.17816E+12  4.40698E+15
      3380    30350.4  1.20092E+12  4.50219E+15
      3381    30430.4  1.22410E+12  4.59925E+15
      3382    30510.5  1.24778E+12  4.69819E+15
      3383    30590.6  1.27183E+12  4.79903E+15
      3384    30670.7  1.29619E+12  4.90181E+15
      3385    30750.8  1.32109E+12  5.00656E+15
      3386    30830.8  1.34639E+12  5.11332E+15
      3387    30910.9  1.37204E+12  5.22211E+15
      3388    30991.0  1.39816E+12  5.33299E+15
      3389    31071.1  1.42483E+12  5.44597E+15
      3390    31151.2  1.45181E+12  5.56109E+15
      3391    31231.2  1.47921E+12  5.67840E+15
      3392    31311.3  1.50723E+12  5.79793E+15
      3393    31391.4  1.53563E+12  5.91970E+15
      3394    31471.5  1.56443E+12  6.04378E+15
      3395    31551.6  1.59379E+12  6.17018E+15
      3396    31631.6  1.62374E+12  6.29895E+15
      3397    31711.7  1.65402E+12  6.43013E+15
      3398    31791.8  1.68482E+12  6.56376E+15
      3399    31871.9  1.71624E+12  6.69988E+15
      3400    31952.0  1.74811E+12  6.83852E+15
      3401    32032.0  1.78044E+12  6.97974E+15
      3402    32112.1  1.81337E+12  7.12358E+15
      3403    32192.2  1.84691E+12  7.27007E+15
      3404    32272.3  1.88086E+12  7.41926E+15
      3405    32352.4  1.91538E+12  7.57119E+15
      3406    32432.4  1.95059E+12  7.72591E+15
      3407    32512.5  1.98626E+12  7.88347E+15
      3408    32592.6  2.02245E+12  8.04391E+15
      3409    32672.7  2.05939E+12  8.20727E+15
      3410    32752.8  2.09691E+12  8.37361E+15
      3411    32832.8  2.13484E+12  8.54297E+15
      3412    32912.9  2.17355E+12  8.71541E+15
      3413    32993.0  2.21294E+12  8.89096E+15
      3414    33073.1  2.25282E+12  9.06968E+15
      3415    33153.2  2.29330E+12  9.25162E+15
      3416    33233.2  2.33459E+12  9.43684E+15
      3417    33313.3  2.37645E+12  9.62538E+15
      3418    33393.4  2.41889E+12  9.81730E+15
      3419    33473.5  2.46212E+12  1.00126E+16
      3420    33553.6  2.50611E+12  1.02115E+16
      3421    33633.6  2.55057E+12  1.04139E+16
      3422    33713.7  2.59581E+12  1.06198E+16
      3423    33793.8  2.64196E+12  1.08294E+16
      3424    33873.9  2.68865E+12  1.10428E+16
      3425    33954.0  2.73594E+12  1.12599E+16
      3426    34034.0  2.78420E+12  1.14808E+16
      3427    34114.1  2.83322E+12  1.17056E+16
      3428    34194.2  2.88281E+12  1.19344E+16
      3429    34274.3  2.93327E+12  1.21671E+16
      3430    34354.4  2.98464E+12  1.24040E+16
      3431    34434.4  3.03664E+12  1.26450E+16
      3432    34514.5  3.08946E+12  1.28901E+16
      3433    34594.6  3.14319E+12  1.31396E+16
      3434    34674.7  3.19769E+12  1.33933E+16
      3435    34754.8  3.25293E+12  1.36515E+16
      3436    34834.8  3.30912E+12  1.39141E+16
      3437    34914.9  3.36625E+12  1.41813E+16
      3438    34995.0  3.42408E+12  1.44530E+16
      3439    35075.1  3.48659E+12  1.47469E+16
      3440    35155.2  3.54626E+12  1.50283E+16
      3441    35235.2  3.60702E+12  1.53146E+16
      3442    35315.3  3.66860E+12  1.56058E+16
      3443    35395.4  3.73091E+12  1.59019E+16
      3444    35475.5  3.79446E+12  1.62031E+16
      3445    35555.6  3.85898E+12  1.65094E+16
      3446    35635.6  3.92419E+12  1.68208E+16
      3447    35715.7  3.99050E+12  1.71376E+16
      3448    35795.8  4.05798E+12  1.74597E+16
      3449    35875.9  4.12624E+12  1.77872E+16
      3450    35956.0  4.19549E+12  1.81203E+16
      3451    36036.0  4.26596E+12  1.84589E+16
      3452    36116.1  4.33746E+12  1.88032E+16
      3453    36196.2  4.40985E+12  1.91533E+16
      3454    36276.3  4.48344E+12  1.95092E+16
      3455    36356.4  4.55817E+12  1.98710E+16
      3456    36436.4  4.63385E+12  2.02389E+16
      3457    36516.5  4.71068E+12  2.06128E+16
      3458    36596.6  4.78883E+12  2.09930E+16
      3459    36676.7  4.86799E+12  2.13795E+16
      3460    36756.8  4.94808E+12  2.17723E+16
      3461    36836.8  5.02963E+12  2.21716E+16
      3462    36916.9  5.11245E+12  2.25775E+16
      3463    36997.0  5.19613E+12  2.29900E+16
      3464    37077.1  5.28121E+12  2.34093E+16
      3465    37157.2  5.36770E+12  2.38355E+16
      3466    37237.2  5.45520E+12  2.42686E+16
      3467    37317.3  5.54393E+12  2.47088E+16
      3468    37397.4  5.63410E+12  2.51562E+16
      3469    37477.5  5.72561E+12  2.56108E+16
      3470    37557.6  5.81821E+12  2.60727E+16
      3471    37637.6  5.91229E+12  2.65422E+16
      3472    37717.7  6.00785E+12  2.70192E+16
      3473    37797.8  6.10449E+12  2.75039E+16
      3474    37877.9  6.20257E+12  2.79965E+16
      3475    37958.0  6.30222E+12  2.84969E+16
      3476    38038.0  6.40325E+12  2.90054E+16
      3477    38118.1  6.50544E+12  2.95220E+16
      3478    38198.2  6.60935E+12  3.00468E+16
      3479    38278.3  6.71486E+12  3.05800E+16
      3480    38358.4  6.82144E+12  3.11217E+16
      3481    38438.4  6.92979E+12  3.16720E+16
      3482    38518.5  7.03971E+12  3.22311E+16
      3483    38598.6  7.15102E+12  3.27990E+16
      3484    38678.7  7.26384E+12  3.33759E+16
      3485    38758.8  7.37846E+12  3.39618E+16
      3486    38838.8  7.49465E+12  3.45570E+16
      3487    38918.9  7.61214E+12  3.51616E+16
      3488    38999.0  7.73159E+12  3.57756E+16
      3489    39079.1  7.85272E+12  3.63993E+16
      3490    39159.2  7.97536E+12  3.70327E+16
      3491    39239.2  8.09962E+12  3.76760E+16
      3492    39319.3  8.22592E+12  3.83293E+16
      3493    39399.4  8.35389E+12  3.89928E+16
      3494    39479.5  8.48324E+12  3.96666E+16
      3495    39559.6  8.61470E+12  4.03509E+16
      3496    39639.6  8.74801E+12  4.10457E+16
      3497    39719.7  8.88287E+12  4.17512E+16
      3498    39799.8  9.01976E+12  4.24677E+16
      3499    39879.9  9.15868E+12  4.31951E+16
      3500    39960.0  9.29924E+12  4.39338E+16
      3501    40040.0  9.45070E+12  4.47310E+16
      3502    40120.1  9.59514E+12  4.54932E+16
      3503    40200.2  9.74184E+12  4.62670E+16
      3504    40280.3  9.89042E+12  4.70527E+16
      3505    40360.4  1.00408E+13  4.78503E+16
      3506    40440.4  1.01934E+13  4.86600E+16
      3507    40520.5  1.03482E+13  4.94821E+16
      3508    40600.6  1.05048E+13  5.03166E+16
      3509    40680.7  1.06635E+13  5.11637E+16
      3510    40760.8  1.08246E+13  5.20236E+16
      3511    40840.8  1.09877E+13  5.28965E+16
      3512    40920.9  1.11527E+13  5.37825E+16
      3513    41001.0  1.13202E+13  5.46819E+16
      3514    41081.1  1.14902E+13  5.55947E+16
      3515    41161.2  1.16620E+13  5.65212E+16
      3516    41241.2  1.18362E+13  5.74615E+16
      3517    41321.3  1.20128E+13  5.84159E+16
      3518    41401.4  1.21917E+13  5.93845E+16
      3519    41481.5  1.23727E+13  6.03675E+16
      3520    41561.6  1.25565E+13  6.13652E+16
      3521    41641.6  1.27427E+13  6.23776E+16
      3522    41721.7  1.29309E+13  6.34050E+16
      3523    41801.8  1.31218E+13  6.44475E+16
      3524    41881.9  1.33154E+13  6.55055E+16
      3525    41962.0  1.35113E+13  6.65790E+16
      3526    42042.0  1.37096E+13  6.76684E+16
      3527    42122.1  1.39110E+13  6.87737E+16
      3528    42202.2  1.41148E+13  6.98952E+16
      3529    42282.3  1.43208E+13  7.10331E+16
      3530    42362.4  1.45299E+13  7.21877E+16
      3531    42442.4  1.47419E+13  7.33590E+16
      3532    42522.5  1.49562E+13  7.45475E+16
      3533    42602.6  1.51733E+13  7.57532E+16
      3534    42682.7  1.53936E+13  7.69764E+16
      3535    42762.8  1.56164E+13  7.82173E+16
      3536    42842.8  1.58419E+13  7.94762E+16
      3537    42922.9  1.60707E+13  8.07533E+16
      3538    43003.0  1.63024E+13  8.20488E+16
      3539    43083.1  1.65367E+13  8.33629E+16
      3540    43163.2  1.67741E+13  8.46959E+16
      3541    43243.2  1.70148E+13  8.60480E+16
      3542    43323.3  1.72583E+13  8.74195E+16
      3543    43403.4  1.75047E+13  8.88107E+16
      3544    43483.5  1.77547E+13  9.02216E+16
      3545    43563.6  1.80077E+13  9.16527E+16
      3546    43643.6  1.82636E+13  9.31042E+16
      3547    43723.7  1.85230E+13  9.45763E+16
      3548    43803.8  1.87857E+13  9.60693E+16
      3549    43883.9  1.90516E+13  9.75834E+16
      3550    43964.0  1.93207E+13  9.91190E+16
      3551    44044.0  1.95936E+13  1.00676E+17
      3552    44124.1  1.98697E+13  1.02255E+17
      3553    44204.2  2.01489E+13  1.03857E+17
      3554    44284.3  2.04320E+13  1.05481E+17
      3555    44364.4  2.07185E+13  1.07127E+17
      3556    44444.4  2.10084E+13  1.08797E+17
      3557    44524.5  2.13019E+13  1.10490E+17
      3558    44604.6  2.15995E+13  1.12207E+17
      3559    44684.7  2.19004E+13  1.13948E+17
      3560    44764.8  2.22049E+13  1.15713E+17
      3561    44844.8  2.25135E+13  1.17502E+17
      3562    44924.9  2.28258E+13  1.19317E+17
      3563    45005.0  2.31616E+13  1.21272E+17
      3564    45085.1  2.34816E+13  1.23138E+17
      3565    45165.2  2.38058E+13  1.25031E+17
      3566    45245.2  2.41341E+13  1.26949E+17
      3567    45325.3  2.44661E+13  1.28894E+17
      3568    45405.4  2.48020E+13  1.30865E+17
      3569    45485.5  2.51425E+13  1.32864E+17
      3570    45565.6  2.54868E+13  1.34890E+17
      3571    45645.6  2.58351E+13  1.36944E+17
      3572    45725.7  2.61880E+13  1.39025E+17
      3573    45805.8  2.65453E+13  1.41136E+17
      3574    45885.9  2.69065E+13  1.43275E+17
      3575    45966.0  2.72721E+13  1.45443E+17
      3576    46046.0  2.76426E+13  1.47640E+17
      3577    46126.1  2.80171E+13  1.49867E+17
      3578    46206.2  2.83958E+13  1.52125E+17
      3579    46286.3  2.87798E+13  1.54413E+17
      3580    46366.4  2.91682E+13  1.56732E+17
      3581    46446.4  2.95608E+13  1.59082E+17
      3582    46526.5  2.99583E+13  1.61464E+17
      3583    46606.6  3.03609E+13  1.63877E+17
      3584    46686.7  3.07677E+13  1.66323E+17
      3585    46766.8  3.11796E+13  1.68802E+17
      3586    46846.8  3.15968E+13  1.71314E+17
      3587    46926.9  3.20185E+13  1.73860E+17
      3588    47007.0  3.24449E+13  1.76440E+17
      3589    47087.1  3.28770E+13  1.79053E+17
      3590    47167.2  3.33141E+13  1.81702E+17
      3591    47247.2  3.37557E+13  1.84386E+17
      3592    47327.3  3.42031E+13  1.87105E+17
      3593    47407.4  3.46559E+13  1.89861E+17
      3594    47487.5  3.51136E+13  1.92653E+17
      3595    47567.6  3.55765E+13  1.95482E+17
      3596    47647.6  3.60454E+13  1.98348E+17
      3597    47727.7  3.65195E+13  2.01251E+17
      3598    47807.8  3.69988E+13  2.04193E+17
      3599    47887.9  3.74839E+13  2.07174E+17
      3600    47968.0  3.79752E+13  2.10193E+17
      3601    48048.0  3.84716E+13  2.13252E+17
      3602    48128.1  3.89737E+13  2.16351E+17
      3603    48208.2  3.94819E+13  2.19491E+17
      3604    48288.3  3.99959E+13  2.22671E+17
      3605    48368.4  4.05156E+13  2.25893E+17
      3606    48448.4  4.10417E+13  2.29156E+17
      3607    48528.5  4.15740E+13  2.32462E+17
      3608    48608.6  4.21118E+13  2.35811E+17
      3609    48688.7  4.26558E+13  2.39203E+17
      3610    48768.8  4.32067E+13  2.42639E+17
      3611    48848.8  4.37635E+13  2.46119E+17
      3612    48928.9  4.43263E+13  2.49644E+17
      3613    49009.0  4.48961E+13  2.53214E+17
      3614    49089.1  4.54724E+13  2.56830E+17
      3615    49169.2  4.60546E+13  2.60493E+17
      3616    49249.2  4.66440E+13  2.64202E+17
      3617    49329.3  4.72402E+13  2.67959E+17
      3618    49409.4  4.78427E+13  2.71764E+17
      3619    49489.5  4.84520E+13  2.75617E+17
      3620    49569.6  4.90688E+13  2.79519E+17
      3621    49649.6  4.96923E+13  2.83471E+17
      3622    49729.7  5.03223E+13  2.87473E+17
      3623    49809.8  5.09597E+13  2.91526E+17
      3624    49889.9  5.16048E+13  2.95630E+17
      3625    49970.0  5.22563E+13  2.99786E+17
      3626    50050.1  5.29569E+13  3.04260E+17
      3627    50130.1  5.36238E+13  3.08525E+17
      3628    50210.2  5.42987E+13  3.12843E+17
      3629    50290.3  5.49807E+13  3.17216E+17
      3630    50370.4  5.56700E+13  3.21644E+17
      3631    50450.5  5.63675E+13  3.26127E+17
      3632    50530.5  5.70726E+13  3.30666E+17
      3633    50610.6  5.77853E+13  3.35262E+17
      3634    50690.7  5.85061E+13  3.39916E+17
      3635    50770.8  5.92352E+13  3.44627E+17
      3636    50850.9  5.99718E+13  3.49397E+17
      3637    50930.9  6.07165E+13  3.54226E+17
      3638    51011.0  6.14699E+13  3.59116E+17
      3639    51091.1  6.22313E+13  3.64066E+17
      3640    51171.2  6.30009E+13  3.69077E+17
      3641    51251.3  6.37790E+13  3.74150E+17
      3642    51331.3  6.45664E+13  3.79286E+17
      3643    51411.4  6.53614E+13  3.84485E+17
      3644    51491.5  6.61651E+13  3.89748E+17
      3645    51571.6  6.69786E+13  3.95075E+17
      3646    51651.7  6.78001E+13  4.00469E+17
      3647    51731.7  6.86305E+13  4.05928E+17
      3648    51811.8  6.94703E+13  4.11454E+17
      3649    51891.9  7.03197E+13  4.17047E+17
      3650    51972.0  7.11771E+13  4.22709E+17
      3651    52052.1  7.20446E+13  4.28440E+17
      3652    52132.1  7.29214E+13  4.34241E+17
      3653    52212.2  7.38074E+13  4.40112E+17
      3654    52292.3  7.47029E+13  4.46055E+17
      3655    52372.4  7.56086E+13  4.52070E+17
      3656    52452.5  7.65236E+13  4.58157E+17
      3657    52532.5  7.74480E+13  4.64318E+17
      3658    52612.6  7.83831E+13  4.70554E+17
      3659    52692.7  7.93283E+13  4.76865E+17
      3660    52772.8  8.02829E+13  4.83251E+17
      3661    52852.9  8.12480E+13  4.89715E+17
      3662    52932.9  8.22239E+13  4.96256E+17
      3663    53013.0  8.32096E+13  5.02876E+17
      3664    53093.1  8.42055E+13  5.09575E+17
      3665    53173.2  8.52128E+13  5.16354E+17
      3666    53253.3  8.62304E+13  5.23214E+17
      3667    53333.3  8.72586E+13  5.30156E+17
      3668    53413.4  8.82979E+13  5.37181E+17
      3669    53493.5  8.93484E+13  5.44290E+17
      3670    53573.6  9.04097E+13  5.51482E+17
      3671    53653.7  9.14819E+13  5.58761E+17
      3672    53733.7  9.25659E+13  5.66125E+17
      3673    53813.8  9.36615E+13  5.73577E+17
      3674    53893.9  9.47679E+13  5.81117E+17
      3675    53974.0  9.58863E+13  5.88746E+17
      3676    54054.1  9.70166E+13  5.96465E+17
      3677    54134.1  9.81580E+13  6.04274E+17
      3678    54214.2  9.93117E+13  6.12176E+17
      3679    54294.3  1.00478E+14  6.20170E+17
      3680    54374.4  1.01656E+14  6.28259E+17
      3681    54454.5  1.02846E+14  6.36442E+17
      3682    54534.5  1.04049E+14  6.44720E+17
      3683    54614.6  1.05264E+14  6.53096E+17
      3684    54694.7  1.06491E+14  6.61569E+17
      3685    54774.8  1.07732E+14  6.70141E+17
      3686    54854.9  1.08985E+14  6.78813E+17
      3687    54934.9  1.10251E+14  6.87585E+17
      3688    55015.0  1.11611E+14  6.97018E+17
      3689    55095.1  1.12904E+14  7.06001E+17
      3690    55175.2  1.14211E+14  7.15089E+17
      3691    55255.3  1.15531E+14  7.24282E+17
      3692    55335.3  1.16864E+14  7.33581E+17
      3693    55415.4  1.18211E+14  7.42987E+17
      3694    55495.5  1.19573E+14  7.52502E+17
      3695    55575.6  1.20947E+14  7.62126E+17
      3696    55655.7  1.22336E+14  7.71861E+17
      3697    55735.7  1.23739E+14  7.81707E+17
      3698    55815.8  1.25156E+14  7.91667E+17
      3699    55895.9  1.26588E+14  8.01740E+17
      3700    55976.0  1.28034E+14  8.11928E+17
      3701    56056.1  1.29496E+14  8.22233E+17
      3702    56136.1  1.30971E+14  8.32655E+17
      3703    56216.2  1.32462E+14  8.43196E+17
      3704    56296.3  1.33968E+14  8.53857E+17
      3705    56376.4  1.35488E+14  8.64639E+17
      3706    56456.5  1.37024E+14  8.75543E+17
      3707    56536.5  1.38576E+14  8.86571E+17
      3708    56616.6  1.40144E+14  8.97724E+17
      3709    56696.7  1.41727E+14  9.09002E+17
      3710    56776.8  1.43326E+14  9.20408E+17
      3711    56856.9  1.44940E+14  9.31943E+17
      3712    56936.9  1.46571E+14  9.43607E+17
      3713    57017.0  1.48218E+14  9.55403E+17
      3714    57097.1  1.49883E+14  9.67331E+17
      3715    57177.2  1.51563E+14  9.79393E+17
      3716    57257.3  1.53260E+14  9.91590E+17
      3717    57337.3  1.54974E+14  1.00392E+18
      3718    57417.4  1.56705E+14  1.01639E+18
      3719    57497.5  1.58453E+14  1.02901E+18
      3720    57577.6  1.60219E+14  1.04176E+18
      3721    57657.7  1.62002E+14  1.05465E+18
      3722    57737.7  1.63802E+14  1.06769E+18
      3723    57817.8  1.65620E+14  1.08087E+18
      3724    57897.9  1.67457E+14  1.09420E+18
      3725    57978.0  1.69311E+14  1.10767E+18
      3726    58058.1  1.71183E+14  1.12129E+18
      3727    58138.1  1.73074E+14  1.13507E+18
      3728    58218.2  1.74984E+14  1.14900E+18
      3729    58298.3  1.76912E+14  1.16308E+18
      3730    58378.4  1.78859E+14  1.17731E+18
      3731    58458.5  1.80825E+14  1.19170E+18
      3732    58538.5  1.82810E+14  1.20626E+18
      3733    58618.6  1.84814E+14  1.22097E+18
      3734    58698.7  1.86839E+14  1.23584E+18
      3735    58778.8  1.88883E+14  1.25087E+18
      3736    58858.9  1.90946E+14  1.26607E+18
      3737    58938.9  1.93029E+14  1.28143E+18
      3738    59019.0  1.95134E+14  1.29696E+18
      3739    59099.1  1.97258E+14  1.31266E+18
      3740    59179.2  1.99402E+14  1.32854E+18
      3741    59259.3  2.01568E+14  1.34458E+18
      3742    59339.3  2.03754E+14  1.36080E+18
      3743    59419.4  2.05961E+14  1.37719E+18
      3744    59499.5  2.08190E+14  1.39376E+18
      3745    59579.6  2.10440E+14  1.41051E+18
      3746    59659.7  2.12711E+14  1.42745E+18
      3747    59739.7  2.15004E+14  1.44456E+18
      3748    59819.8  2.17320E+14  1.46186E+18
      3749    59899.9  2.19657E+14  1.47934E+18
      3750    59980.0  2.22016E+14  1.49702E+18
      3751    60060.1  2.24548E+14  1.51600E+18
      3752    60140.1  2.26954E+14  1.53407E+18
      3753    60220.2  2.29384E+14  1.55233E+18
      3754    60300.3  2.31835E+14  1.57078E+18
      3755    60380.4  2.34311E+14  1.58943E+18
      3756    60460.5  2.36810E+14  1.60828E+18
      3757    60540.5  2.39333E+14  1.62734E+18
      3758    60620.6  2.41879E+14  1.64659E+18
      3759    60700.7  2.44449E+14  1.66605E+18
      3760    60780.8  2.47044E+14  1.68572E+18
      3761    60860.9  2.49663E+14  1.70559E+18
      3762    60940.9  2.52307E+14  1.72568E+18
      3763    61021.0  2.54976E+14  1.74597E+18
      3764    61101.1  2.57669E+14  1.76649E+18
      3765    61181.2  2.60388E+14  1.78722E+18
      3766    61261.3  2.63132E+14  1.80816E+18
      3767    61341.3  2.65903E+14  1.82933E+18
      3768    61421.4  2.68698E+14  1.85072E+18
      3769    61501.5  2.71520E+14  1.87234E+18
      3770    61581.6  2.74369E+14  1.89418E+18
      3771    61661.7  2.77243E+14  1.91625E+18
      3772    61741.7  2.80145E+14  1.93855E+18
      3773    61821.8  2.83073E+14  1.96109E+18
      3774    61901.9  2.86029E+14  1.98386E+18
      3775    61982.0  2.89012E+14  2.00687E+18
      3776    62062.1  2.92023E+14  2.03012E+18
      3777    62142.1  2.95062E+14  2.05361E+18
      3778    62222.2  2.98128E+14  2.07735E+18
      3779    62302.3  3.01222E+14  2.10133E+18
      3780    62382.4  3.04346E+14  2.12556E+18
      3781    62462.5  3.07498E+14  2.15004E+18
      3782    62542.5  3.10679E+14  2.17477E+18
      3783    62622.6  3.13889E+14  2.19976E+18
      3784    62702.7  3.17129E+14  2.22501E+18
      3785    62782.8  3.20397E+14  2.25052E+18
      3786    62862.9  3.23697E+14  2.27629E+18
      3787    62942.9  3.27026E+14  2.30233E+18
      3788    63023.0  3.30386E+14  2.32864E+18
      3789    63103.1  3.33776E+14  2.35521E+18
      3790    63183.2  3.37197E+14  2.38206E+18
      3791    63263.3  3.40649E+14  2.40918E+18
      3792    63343.3  3.44132E+14  2.43658E+18
      3793    63423.4  3.47648E+14  2.46426E+18
      3794    63503.5  3.51195E+14  2.49222E+18
      3795    63583.6  3.54774E+14  2.52047E+18
      3796    63663.7  3.58385E+14  2.54900E+18
      3797    63743.7  3.62030E+14  2.57783E+18
      3798    63823.8  3.65706E+14  2.60695E+18
      3799    63903.9  3.69416E+14  2.63636E+18
      3800    63984.0  3.73160E+14  2.66607E+18
      3801    64064.1  3.76937E+14  2.69609E+18
      3802    64144.1  3.80748E+14  2.72640E+18
      3803    64224.2  3.84592E+14  2.75703E+18
      3804    64304.3  3.88473E+14  2.78796E+18
      3805    64384.4  3.92386E+14  2.81920E+18
      3806    64464.5  3.96335E+14  2.85076E+18
      3807    64544.5  4.00321E+14  2.88264E+18
      3808    64624.6  4.04340E+14  2.91483E+18
      3809    64704.7  4.08395E+14  2.94735E+18
      3810    64784.8  4.12487E+14  2.98020E+18
      3811    64864.9  4.16616E+14  3.01337E+18
      3812    64944.9  4.20780E+14  3.04688E+18
      3813    65025.0  4.25245E+14  3.08285E+18
      3814    65105.1  4.29486E+14  3.11704E+18
      3815    65185.2  4.33766E+14  3.15159E+18
      3816    65265.3  4.38082E+14  3.18647E+18
      3817    65345.3  4.42437E+14  3.22170E+18
      3818    65425.4  4.46830E+14  3.25728E+18
      3819    65505.5  4.51262E+14  3.29322E+18
      3820    65585.6  4.55731E+14  3.32951E+18
      3821    65665.7  4.60242E+14  3.36616E+18
      3822    65745.7  4.64791E+14  3.40317E+18
      3823    65825.8  4.69379E+14  3.44055E+18
      3824    65905.9  4.74009E+14  3.47829E+18
      3825    65986.0  4.78679E+14  3.51641E+18
      3826    66066.1  4.83389E+14  3.55491E+18
      3827    66146.1  4.88141E+14  3.59378E+18
      3828    66226.2  4.92935E+14  3.63304E+18
      3829    66306.3  4.97769E+14  3.67268E+18
      3830    66386.4  5.02645E+14  3.71270E+18
      3831    66466.5  5.07565E+14  3.75312E+18
      3832    66546.5  5.12526E+14  3.79394E+18
      3833    66626.6  5.17530E+14  3.83515E+18
      3834    66706.7  5.22578E+14  3.87677E+18
      3835    66786.8  5.27671E+14  3.91879E+18
      3836    66866.9  5.32806E+14  3.96123E+18
      3837    66946.9  5.37986E+14  4.00407E+18
      3838    67027.0  5.43211E+14  4.04733E+18
      3839    67107.1  5.48480E+14  4.09101E+18
      3840    67187.2  5.53794E+14  4.13511E+18
      3841    67267.3  5.59154E+14  4.17965E+18
      3842    67347.3  5.64562E+14  4.22461E+18
      3843    67427.4  5.70014E+14  4.27000E+18
      3844    67507.5  5.75512E+14  4.31584E+18
      3845    67587.6  5.81058E+14  4.36211E+18
      3846    67667.7  5.86652E+14  4.40884E+18
      3847    67747.7  5.92292E+14  4.45601E+18
      3848    67827.8  5.97981E+14  4.50363E+18
      3849    67907.9  6.03720E+14  4.55172E+18
      3850    67988.0  6.09506E+14  4.60026E+18
      3851    68068.1  6.15341E+14  4.64927E+18
      3852    68148.1  6.21226E+14  4.69874E+18
      3853    68228.2  6.27161E+14  4.74869E+18
      3854    68308.3  6.33146E+14  4.79912E+18
      3855    68388.4  6.39181E+14  4.85003E+18
      3856    68468.5  6.45268E+14  4.90142E+18
      3857    68548.5  6.51406E+14  4.95330E+18
      3858    68628.6  6.57594E+14  5.00568E+18
      3859    68708.7  6.63836E+14  5.05855E+18
      3860    68788.8  6.70129E+14  5.11193E+18
      3861    68868.9  6.76475E+14  5.16580E+18
      3862    68948.9  6.82876E+14  5.22019E+18
      3863    69029.0  6.89330E+14  5.27510E+18
      3864    69109.1  6.95836E+14  5.33052E+18
      3865    69189.2  7.02398E+14  5.38647E+18
      3866    69269.3  7.09015E+14  5.44294E+18
      3867    69349.3  7.15686E+14  5.49994E+18
      3868    69429.4  7.22413E+14  5.55748E+18
      3869    69509.5  7.29197E+14  5.61556E+18
      3870    69589.6  7.36036E+14  5.67419E+18
      3871    69669.7  7.42932E+14  5.73337E+18
      3872    69749.7  7.49886E+14  5.79310E+18
      3873    69829.8  7.56897E+14  5.85338E+18
      3874    69909.9  7.63965E+14  5.91424E+18
      3875    69990.0  7.71092E+14  5.97566E+18
      3876    70070.1  7.78729E+14  6.04154E+18
      3877    70150.2  7.85979E+14  6.10415E+18
      3878    70230.2  7.93288E+14  6.16734E+18
      3879    70310.3  8.00656E+14  6.23111E+18
      3880    70390.4  8.08086E+14  6.29548E+18
      3881    70470.5  8.15576E+14  6.36045E+18
      3882    70550.6  8.23127E+14  6.42601E+18
      3883    70630.6  8.30741E+14  6.49219E+18
      3884    70710.7  8.38418E+14  6.55897E+18
      3885    70790.8  8.46155E+14  6.62637E+18
      3886    70870.9  8.53956E+14  6.69440E+18
      3887    70951.0  8.61823E+14  6.76305E+18
      3888    71031.0  8.69752E+14  6.83233E+18
      3889    71111.1  8.77745E+14  6.90225E+18
      3890    71191.2  8.85804E+14  6.97281E+18
      3891    71271.3  8.93928E+14  7.04402E+18
      3892    71351.4  9.02118E+14  7.11588E+18
      3893    71431.4  9.10373E+14  7.18840E+18
      3894    71511.5  9.18698E+14  7.26158E+18
      3895    71591.6  9.27088E+14  7.33544E+18
      3896    71671.7  9.35546E+14  7.40996E+18
      3897    71751.8  9.44073E+14  7.48517E+18
      3898    71831.8  9.52667E+14  7.56106E+18
      3899    71911.9  9.61331E+14  7.63764E+18
      3900    71992.0  9.70064E+14  7.71492E+18
      3901    72072.1  9.78869E+14  7.79289E+18
      3902    72152.2  9.87743E+14  7.87158E+18
      3903    72232.2  9.96687E+14  7.95098E+18
      3904    72312.3  1.00571E+15  8.03110E+18
      3905    72392.4  1.01479E+15  8.11194E+18
      3906    72472.5  1.02395E+15  8.19351E+18
      3907    72552.6  1.03319E+15  8.27582E+18
      3908    72632.6  1.04250E+15  8.35887E+18
      3909    72712.7  1.05188E+15  8.44267E+18
      3910    72792.8  1.06134E+15  8.52722E+18
      3911    72872.9  1.07087E+15  8.61253E+18
      3912    72953.0  1.08048E+15  8.69861E+18
      3913    73033.0  1.09016E+15  8.78546E+18
      3914    73113.1  1.09992E+15  8.87309E+18
      3915    73193.2  1.10976E+15  8.96150E+18
      3916    73273.3  1.11967E+15  9.05070E+18
      3917    73353.4  1.12967E+15  9.14070E+18
      3918    73433.4  1.13974E+15  9.23150E+18
      3919    73513.5  1.14989E+15  9.32311E+18
      3920    73593.6  1.16012E+15  9.41553E+18
      3921    73673.7  1.17043E+15  9.50878E+18
      3922    73753.8  1.18082E+15  9.60286E+18
      3923    73833.8  1.19130E+15  9.69777E+18
      3924    73913.9  1.20185E+15  9.79352E+18
      3925    73994.0  1.21249E+15  9.89012E+18
      3926    74074.1  1.22321E+15  9.98757E+18
      3927    74154.2  1.23402E+15  1.00859E+19
      3928    74234.2  1.24491E+15  1.01851E+19
      3929    74314.3  1.25588E+15  1.02851E+19
      3930    74394.4  1.26694E+15  1.03861E+19
      3931    74474.5  1.27809E+15  1.04879E+19
      3932    74554.6  1.28932E+15  1.05906E+19
      3933    74634.6  1.30064E+15  1.06942E+19
      3934    74714.7  1.31204E+15  1.07988E+19
      3935    74794.8  1.32354E+15  1.09042E+19
      3936    74874.9  1.33512E+15  1.10106E+19
      3937    74955.0  1.34679E+15  1.11179E+19
      3938    75035.0  1.35929E+15  1.12330E+19
      3939    75115.1  1.37116E+15  1.13422E+19
      3940    75195.2  1.38310E+15  1.14524E+19
      3941    75275.3  1.39515E+15  1.15636E+19
      3942    75355.4  1.40728E+15  1.16757E+19
      3943    75435.4  1.41951E+15  1.17888E+19
      3944    75515.5  1.43183E+15  1.19029E+19
      3945    75595.6  1.44425E+15  1.20179E+19
      3946    75675.7  1.45676E+15  1.21340E+19
      3947    75755.8  1.46936E+15  1.22511E+19
      3948    75835.8  1.48206E+15  1.23692E+19
      3949    75915.9  1.49486E+15  1.24883E+19
      3950    75996.0  1.50776E+15  1.26084E+19
      3951    76076.1  1.52075E+15  1.27296E+19
      3952    76156.2  1.53385E+15  1.28518E+19
      3953    76236.2  1.54704E+15  1.29751E+19
      3954    76316.3  1.56033E+15  1.30994E+19
      3955    76396.4  1.57373E+15  1.32248E+19
      3956    76476.5  1.58722E+15  1.33513E+19
      3957    76556.6  1.60082E+15  1.34788E+19
      3958    76636.6  1.61452E+15  1.36075E+19
      3959    76716.7  1.62832E+15  1.37372E+19
      3960    76796.8  1.64222E+15  1.38681E+19
      3961    76876.9  1.65623E+15  1.40001E+19
      3962    76957.0  1.67035E+15  1.41332E+19
      3963    77037.0  1.68457E+15  1.42674E+19
      3964    77117.1  1.69890E+15  1.44028E+19
      3965    77197.2  1.71334E+15  1.45393E+19
      3966    77277.3  1.72788E+15  1.46770E+19
      3967    77357.4  1.74253E+15  1.48158E+19
      3968    77437.4  1.75729E+15  1.49558E+19
      3969    77517.5  1.77217E+15  1.50971E+19
      3970    77597.6  1.78715E+15  1.52395E+19
      3971    77677.7  1.80224E+15  1.53831E+19
      3972    77757.8  1.81745E+15  1.55279E+19
      3973    77837.8  1.83277E+15  1.56740E+19
      3974    77917.9  1.84820E+15  1.58212E+19
      3975    77998.0  1.86375E+15  1.59697E+19
      3976    78078.1  1.87941E+15  1.61195E+19
      3977    78158.2  1.89519E+15  1.62705E+19
      3978    78238.2  1.91108E+15  1.64228E+19
      3979    78318.3  1.92710E+15  1.65764E+19
      3980    78398.4  1.94323E+15  1.67312E+19
      3981    78478.5  1.95948E+15  1.68874E+19
      3982    78558.6  1.97585E+15  1.70448E+19
      3983    78638.6  1.99234E+15  1.72036E+19
      3984    78718.7  2.00895E+15  1.73637E+19
      3985    78798.8  2.02568E+15  1.75251E+19
      3986    78878.9  2.04253E+15  1.76879E+19
      3987    78959.0  2.05951E+15  1.78520E+19
      3988    79039.0  2.07661E+15  1.80175E+19
      3989    79119.1  2.09384E+15  1.81844E+19
