**************INPUT DATA SUMMARY**************
%%%%%%%%%%%%%%%%%%%%%%%%%%%%%%%%%%%%%%%%%%%%%%%%%%%%%%%%%%%%%%%%%%%%%%%%%%%%%%

                                        John R. Barker
                DenSum-2023             University of Michigan
                                        Ann Arbor, MI 48109-2143
                Mar 2023                jrbarker@umich.edu
                                        (734) 763 6239

              http://clasp-research.engin.umich.edu/multiwell/

%%%%%%%%%%%%%%%%%%%%%%%%%%%%%%%%%%%%%%%%%%%%%%%%%%%%%%%%%%%%%%%%%%%%%%%%%%%%%%

        Suggested Literature Citations:

    a) J.R. Barker, T.L. Nguyen, J.F. Stanton, C. Aieta, M. Ceotto,
       F. Gabas, T.J.D. Kumar, C.G.L.Li, L.L.Lohr, A. Maranzana,
       N.F. Ortiz, J.M. Preses, J.M. Simmie, J.A. Sonk, and P.J. Stimac; 
       MultiWell-2023    Software Suite; University of Michigan, 
       Ann Arbor, Michigan, USA, Mar 2023; 
       http://clasp-research.engin.umich.edu/multiwell/.

    b) J.R. Barker, Int. J. Chem. Kinetics, 33, 232-45 (2001)

%%%%%%%%%%%%%%%%%%%%%%%%%%%%%%%%%%%%%%%%%%%%%%%%%%%%%%%%%%%%%%%%%%%%%%%%%%%%%%


....................................................
          2023/03/24   07:10:13.229   (Local Time)
          year/mm/dd   hr:mi:second
                 CPU :        0.006 s (  0.000 hr)
....................................................


Degrees of Freedom

  1  Hind.Rot  Freq(har)=  303.61  Mom=  10.806  fold= 3  symm= 3  B=  1.5600 cm-1  Uo= 6565.3 cm-1
  2  Vibrator: Fund=   826.63  Harm=   826.63  Anh(cm-1)=    0.00  g=  1
  3  Vibrator: Fund=   826.63  Harm=   826.63  Anh(cm-1)=    0.00  g=  1
  4  Vibrator: Fund=   996.29  Harm=   996.29  Anh(cm-1)=    0.00  g=  1
  5  Vibrator: Fund=  1223.36  Harm=  1223.36  Anh(cm-1)=    0.00  g=  1
  6  Vibrator: Fund=  1223.37  Harm=  1223.37  Anh(cm-1)=    0.00  g=  1
  7  Vibrator: Fund=  1414.37  Harm=  1414.37  Anh(cm-1)=    0.00  g=  1
  8  Vibrator: Fund=  1424.33  Harm=  1424.33  Anh(cm-1)=    0.00  g=  1
  9  Vibrator: Fund=  1505.37  Harm=  1505.37  Anh(cm-1)=    0.00  g=  1
 10  Vibrator: Fund=  1505.37  Harm=  1505.37  Anh(cm-1)=    0.00  g=  1
 11  Vibrator: Fund=  1509.06  Harm=  1509.06  Anh(cm-1)=    0.00  g=  1
 12  Vibrator: Fund=  1509.06  Harm=  1509.06  Anh(cm-1)=    0.00  g=  1
 13  Vibrator: Fund=  3026.55  Harm=  3026.55  Anh(cm-1)=    0.00  g=  1
 14  Vibrator: Fund=  3027.09  Harm=  3027.09  Anh(cm-1)=    0.00  g=  1
 15  Vibrator: Fund=  3072.08  Harm=  3072.08  Anh(cm-1)=    0.00  g=  1
 16  Vibrator: Fund=  3072.08  Harm=  3072.08  Anh(cm-1)=    0.00  g=  1
 17  Vibrator: Fund=  3097.01  Harm=  3097.01  Anh(cm-1)=    0.00  g=  1
 18  Vibrator: Fund=  3097.01  Harm=  3097.01  Anh(cm-1)=    0.00  g=  1
 19  Quan.Rot  AmuAng^2 =    2.70  Symm =  1.   dim = 1  B =  6.2392 cm-1
 20  Quan.Rot  AmuAng^2 =    0.67  Symm =  1.   dim = 2  B = 25.2708 cm-1
**************INPUT DATA SUMMARY**************
 C2H6-k
C2H6 ktools example                               
       10.0       1500    85000.0       2000      303.6
       No.    E-Emin     Density     Sum   [Emin =    0.0 cm-1; E at TOP of energy grains]
         1        0.0  1.00000E-01  1.00000E+00
         2       10.0  2.00000E-01  3.00000E+00
         3       20.0  2.00000E-01  5.00000E+00
         4       30.0  0.00000E+00  5.00000E+00
         5       40.0  0.00000E+00  5.00000E+00
         6       50.0  3.00000E-01  8.00000E+00
         7       60.0  8.00000E-01  1.60000E+01
         8       70.0  6.00000E-01  2.20000E+01
         9       80.0  0.00000E+00  2.20000E+01
        10       90.0  0.00000E+00  2.20000E+01
        11      100.0  2.00000E-01  2.40000E+01
        12      110.0  6.00000E-01  3.00000E+01
        13      120.0  0.00000E+00  3.00000E+01
        14      130.0  0.00000E+00  3.00000E+01
        15      140.0  0.00000E+00  3.00000E+01
        16      150.0  1.10000E+00  4.10000E+01
        17      160.0  1.20000E+00  5.30000E+01
        18      170.0  1.00000E+00  6.30000E+01
        19      180.0  0.00000E+00  6.30000E+01
        20      190.0  0.00000E+00  6.30000E+01
        21      200.0  0.00000E+00  6.30000E+01
        22      210.0  1.60000E+00  7.90000E+01
        23      220.0  2.00000E-01  8.10000E+01
        24      230.0  0.00000E+00  8.10000E+01
        25      240.0  0.00000E+00  8.10000E+01
        26      250.0  1.00000E+00  9.10000E+01
        27      260.0  0.00000E+00  9.10000E+01
        28      270.0  6.00000E-01  9.70000E+01
        29      280.0  0.00000E+00  9.70000E+01
        30      290.0  0.00000E+00  9.70000E+01
        31      300.0  8.00000E-01  1.05000E+02
        32      310.0  2.80000E+00  1.33000E+02
        33      320.0  1.60000E+00  1.49000E+02
        34      330.0  0.00000E+00  1.49000E+02
        35      340.0  0.00000E+00  1.49000E+02
        36      350.0  3.00000E-01  1.52000E+02
        37      360.0  2.80000E+00  1.80000E+02
        38      370.0  1.60000E+00  1.96000E+02
        39      380.0  0.00000E+00  1.96000E+02
        40      390.0  0.00000E+00  1.96000E+02
        41      400.0  1.80000E+00  2.14000E+02
        42      410.0  6.00000E-01  2.20000E+02
        43      420.0  0.00000E+00  2.20000E+02
        44      430.0  0.00000E+00  2.20000E+02
        45      440.0  0.00000E+00  2.20000E+02
        46      450.0  1.70000E+00  2.37000E+02
        47      460.0  3.60000E+00  2.73000E+02
        48      470.0  1.00000E+00  2.83000E+02
        49      480.0  0.00000E+00  2.83000E+02
        50      490.0  0.00000E+00  2.83000E+02
        51      500.0  0.00000E+00  2.83000E+02
        52      510.0  2.70000E+00  3.10000E+02
        53      520.0  3.40000E+00  3.44000E+02
        54      530.0  1.80000E+00  3.62000E+02
        55      540.0  0.00000E+00  3.62000E+02
        56      550.0  2.00000E+00  3.82000E+02
        57      560.0  6.00000E-01  3.88000E+02
        58      570.0  2.40000E+00  4.12000E+02
        59      580.0  0.00000E+00  4.12000E+02
        60      590.0  0.00000E+00  4.12000E+02
        61      600.0  8.00000E-01  4.20000E+02
        62      610.0  6.00000E+00  4.80000E+02
        63      620.0  1.80000E+00  4.98000E+02
        64      630.0  0.00000E+00  4.98000E+02
        65      640.0  0.00000E+00  4.98000E+02
        66      650.0  3.00000E-01  5.01000E+02
        67      660.0  3.80000E+00  5.39000E+02
        68      670.0  4.00000E+00  5.79000E+02
        69      680.0  0.00000E+00  5.79000E+02
        70      690.0  0.00000E+00  5.79000E+02
        71      700.0  3.20000E+00  6.11000E+02
        72      710.0  6.00000E-01  6.17000E+02
        73      720.0  0.00000E+00  6.17000E+02
        74      730.0  1.80000E+00  6.35000E+02
        75      740.0  0.00000E+00  6.35000E+02
        76      750.0  1.90000E+00  6.54000E+02
        77      760.0  4.70000E+00  7.01000E+02
        78      770.0  4.20000E+00  7.43000E+02
        79      780.0  2.20000E+00  7.65000E+02
        80      790.0  0.00000E+00  7.65000E+02
        81      800.0  6.00000E-01  7.71000E+02
        82      810.0  4.10000E+00  8.12000E+02
        83      820.0  7.40000E+00  8.86000E+02
        84      830.0  2.00000E+00  9.06000E+02
        85      840.0  4.00000E-01  9.10000E+02
        86      850.0  2.40000E+00  9.34000E+02
        87      860.0  2.80000E+00  9.62000E+02
        88      870.0  2.40000E+00  9.86000E+02
        89      880.0  6.00000E-01  9.92000E+02
        90      890.0  1.70000E+00  1.00900E+03
        91      900.0  3.30000E+00  1.04200E+03
        92      910.0  7.80000E+00  1.12000E+03
        93      920.0  5.20000E+00  1.17200E+03
        94      930.0  4.00000E-01  1.17600E+03
        95      940.0  1.50000E+00  1.19100E+03
        96      950.0  1.40000E+00  1.20500E+03
        97      960.0  3.60000E+00  1.24100E+03
        98      970.0  3.40000E+00  1.27500E+03
        99      980.0  4.40000E+00  1.31900E+03
       100      990.0  2.60000E+00  1.34500E+03
       101     1000.0  5.70000E+00  1.40200E+03
       102     1010.0  2.00000E-01  1.40400E+03
       103     1020.0  2.00000E+00  1.42400E+03
       104     1030.0  1.80000E+00  1.44200E+03
       105     1040.0  4.30000E+00  1.48500E+03
       106     1050.0  5.30000E+00  1.53800E+03
       107     1060.0  6.60000E+00  1.60400E+03
       108     1070.0  8.60000E+00  1.69000E+03
       109     1080.0  6.80000E+00  1.75800E+03
       110     1090.0  0.00000E+00  1.75800E+03
       111     1100.0  4.20000E+00  1.80000E+03
       112     1110.0  3.30000E+00  1.83300E+03
       113     1120.0  9.80000E+00  1.93100E+03
       114     1130.0  5.20000E+00  1.98300E+03
       115     1140.0  6.60000E+00  2.04900E+03
       116     1150.0  5.30000E+00  2.10200E+03
       117     1160.0  9.40000E+00  2.19600E+03
       118     1170.0  2.80000E+00  2.22400E+03
       119     1180.0  7.00000E-01  2.23100E+03
       120     1190.0  6.50000E+00  2.29600E+03
       121     1200.0  9.60000E+00  2.39200E+03
       122     1210.0  8.00000E+00  2.47200E+03
       123     1220.0  7.00000E+00  2.54200E+03
       124     1230.0  4.30000E+00  2.58500E+03
       125     1240.0  2.40000E+00  2.60900E+03
       126     1250.0  4.20000E+00  2.65100E+03
       127     1260.0  3.80000E+00  2.68900E+03
       128     1270.0  6.40000E+00  2.75300E+03
       129     1280.0  1.00000E+01  2.85300E+03
       130     1290.0  1.06000E+01  2.95900E+03
       131     1300.0  4.20000E+00  3.00100E+03
       132     1310.0  2.80000E+00  3.02900E+03
       133     1320.0  3.80000E+00  3.06700E+03
       134     1330.0  4.10000E+00  3.10800E+03
       135     1340.0  7.20000E+00  3.18000E+03
       136     1350.0  1.47000E+01  3.32700E+03
       137     1360.0  8.80000E+00  3.41500E+03
       138     1370.0  1.54000E+01  3.56900E+03
       139     1380.0  1.34000E+01  3.70300E+03
       140     1390.0  4.80000E+00  3.75100E+03
       141     1400.0  9.30000E+00  3.84400E+03
       142     1410.0  7.10000E+00  3.91500E+03
       143     1420.0  1.02000E+01  4.01700E+03
       144     1430.0  1.10000E+01  4.12700E+03
       145     1440.0  1.66000E+01  4.29300E+03
       146     1450.0  7.10000E+00  4.36400E+03
       147     1460.0  1.54000E+01  4.51800E+03
       148     1470.0  4.30000E+00  4.56100E+03
       149     1480.0  5.90000E+00  4.62000E+03
       150     1490.0  1.20000E+01  4.74000E+03
       151     1500.0  1.62000E+01  4.90200E+03
       152     1510.0  7.80000E+00  4.98000E+03
       153     1520.0  1.82000E+01  5.16200E+03
       154     1530.0  1.58000E+01  5.32000E+03
       155     1540.0  6.40000E+00  5.38400E+03
       156     1550.0  5.60000E+00  5.44000E+03
       157     1560.0  1.27000E+01  5.56700E+03
       158     1570.0  1.45000E+01  5.71200E+03
       159     1580.0  2.34000E+01  5.94600E+03
       160     1590.0  1.50000E+01  6.09600E+03
       161     1600.0  9.40000E+00  6.19000E+03
       162     1610.0  1.23000E+01  6.31300E+03
       163     1620.0  1.42000E+01  6.45500E+03
       164     1630.0  5.80000E+00  6.51300E+03
       165     1640.0  1.40000E+01  6.65300E+03
       166     1650.0  2.10000E+01  6.86300E+03
       167     1660.0  2.00000E+01  7.06300E+03
       168     1670.0  2.60000E+01  7.32300E+03
       169     1680.0  2.36000E+01  7.55900E+03
       170     1690.0  9.90000E+00  7.65800E+03
       171     1700.0  1.54000E+01  7.81200E+03
       172     1710.0  1.19000E+01  7.93100E+03
       173     1720.0  1.63000E+01  8.09400E+03
       174     1730.0  2.84000E+01  8.37800E+03
       175     1740.0  2.77000E+01  8.65500E+03
       176     1750.0  2.21000E+01  8.87600E+03
       177     1760.0  1.87000E+01  9.06300E+03
       178     1770.0  1.51000E+01  9.21400E+03
       179     1780.0  1.74000E+01  9.38800E+03
       180     1790.0  1.83000E+01  9.57100E+03
       181     1800.0  1.50000E+01  9.72100E+03
       182     1810.0  2.82000E+01  1.00030E+04
       183     1820.0  4.01000E+01  1.04040E+04
       184     1830.0  3.36000E+01  1.07400E+04
       185     1840.0  9.20000E+00  1.08320E+04
       186     1850.0  1.06000E+01  1.09380E+04
       187     1860.0  1.77000E+01  1.11150E+04
       188     1870.0  3.13000E+01  1.14280E+04
       189     1880.0  3.90000E+01  1.18180E+04
       190     1890.0  2.34000E+01  1.20520E+04
       191     1900.0  2.41000E+01  1.22930E+04
       192     1910.0  3.26000E+01  1.26190E+04
       193     1920.0  2.37000E+01  1.28560E+04
       194     1930.0  1.71000E+01  1.30270E+04
       195     1940.0  1.88000E+01  1.32150E+04
       196     1950.0  3.71000E+01  1.35860E+04
       197     1960.0  3.80000E+01  1.39660E+04
       198     1970.0  3.95000E+01  1.43610E+04
       199     1980.0  3.86000E+01  1.47470E+04
       200     1990.0  3.47000E+01  1.50940E+04
       201     2000.0  2.00000E+01  1.52940E+04
       202     2010.0  1.31000E+01  1.54250E+04
       203     2020.0  3.26000E+01  1.57510E+04
       204     2030.0  5.56000E+01  1.63070E+04
       205     2040.0  5.37000E+01  1.68440E+04
       206     2050.0  3.56000E+01  1.72000E+04
       207     2060.0  2.31000E+01  1.74310E+04
       208     2070.0  2.56000E+01  1.76870E+04
       209     2080.0  4.14000E+01  1.81010E+04
       210     2090.0  2.14000E+01  1.83150E+04
       211     2100.0  2.68000E+01  1.85830E+04
       212     2110.0  4.66000E+01  1.90490E+04
       213     2120.0  6.45000E+01  1.96940E+04
       214     2130.0  4.28000E+01  2.01220E+04
       215     2140.0  2.49000E+01  2.03710E+04
       216     2150.0  1.50000E+01  2.05210E+04
       217     2160.0  3.69000E+01  2.08900E+04
       218     2170.0  4.98000E+01  2.13880E+04
       219     2180.0  6.26000E+01  2.20140E+04
       220     2190.0  2.97000E+01  2.23110E+04
       221     2200.0  5.52000E+01  2.28630E+04
       222     2210.0  4.44000E+01  2.33070E+04
       223     2220.0  4.16000E+01  2.37230E+04
       224     2230.0  3.40000E+01  2.40630E+04
       225     2240.0  4.45000E+01  2.45080E+04
       226     2250.0  3.83000E+01  2.48910E+04
       227     2260.0  6.26000E+01  2.55170E+04
       228     2270.0  6.57000E+01  2.61740E+04
       229     2280.0  6.82000E+01  2.68560E+04
       230     2290.0  6.78000E+01  2.75340E+04
       231     2300.0  3.02000E+01  2.78360E+04
       232     2310.0  3.18000E+01  2.81540E+04
       233     2320.0  6.54000E+01  2.88080E+04
       234     2330.0  9.01000E+01  2.97090E+04
       235     2340.0  6.29000E+01  3.03380E+04
       236     2350.0  6.78000E+01  3.10160E+04
       237     2360.0  4.33000E+01  3.14490E+04
       238     2370.0  5.28000E+01  3.19770E+04
       239     2380.0  6.52000E+01  3.26290E+04
       240     2390.0  3.56000E+01  3.29850E+04
       241     2400.0  4.79000E+01  3.34640E+04
       242     2410.0  8.82000E+01  3.43460E+04
       243     2420.0  8.84000E+01  3.52300E+04
       244     2430.0  6.60000E+01  3.58900E+04
       245     2440.0  5.44000E+01  3.64340E+04
       246     2450.0  4.64000E+01  3.68980E+04
       247     2460.0  5.55000E+01  3.74530E+04
       248     2470.0  7.88000E+01  3.82410E+04
       249     2480.0  7.13000E+01  3.89540E+04
       250     2490.0  7.53000E+01  3.97070E+04
       251     2500.0  8.62000E+01  4.05690E+04
       252     2510.0  8.79000E+01  4.14480E+04
       253     2520.0  5.28000E+01  4.19760E+04
       254     2530.0  6.60000E+01  4.26360E+04
       255     2540.0  6.20000E+01  4.32560E+04
       256     2550.0  6.81000E+01  4.39370E+04
       257     2560.0  1.12700E+02  4.50640E+04
       258     2570.0  1.11800E+02  4.61820E+04
       259     2580.0  1.14400E+02  4.73260E+04
       260     2590.0  1.00000E+02  4.83260E+04
       261     2600.0  6.05000E+01  4.89310E+04
       262     2610.0  7.43000E+01  4.96740E+04
       263     2620.0  9.54000E+01  5.06280E+04
       264     2630.0  1.05600E+02  5.16840E+04
       265     2640.0  1.10200E+02  5.27860E+04
       266     2650.0  1.16000E+02  5.39460E+04
       267     2660.0  1.06400E+02  5.50100E+04
       268     2670.0  9.68000E+01  5.59780E+04
       269     2680.0  8.18000E+01  5.67960E+04
       270     2690.0  5.93000E+01  5.73890E+04
       271     2700.0  1.09900E+02  5.84880E+04
       272     2710.0  1.31900E+02  5.98070E+04
       273     2720.0  1.18100E+02  6.09880E+04
       274     2730.0  1.07600E+02  6.20640E+04
       275     2740.0  1.04300E+02  6.31070E+04
       276     2750.0  8.90000E+01  6.39970E+04
       277     2760.0  9.46000E+01  6.49430E+04
       278     2770.0  1.07000E+02  6.60130E+04
       279     2780.0  1.25800E+02  6.72710E+04
       280     2790.0  1.54400E+02  6.88150E+04
       281     2800.0  1.44600E+02  7.02610E+04
       282     2810.0  1.43700E+02  7.16980E+04
       283     2820.0  1.09200E+02  7.27900E+04
       284     2830.0  9.26000E+01  7.37160E+04
       285     2840.0  9.94000E+01  7.47100E+04
       286     2850.0  1.11600E+02  7.58260E+04
       287     2860.0  1.76000E+02  7.75860E+04
       288     2870.0  1.78900E+02  7.93750E+04
       289     2880.0  1.84800E+02  8.12230E+04
       290     2890.0  1.37900E+02  8.26020E+04
       291     2900.0  1.21200E+02  8.38140E+04
       292     2910.0  1.43000E+02  8.52440E+04
       293     2920.0  1.26800E+02  8.65120E+04
       294     2930.0  1.52100E+02  8.80330E+04
       295     2940.0  1.73300E+02  8.97660E+04
       296     2950.0  1.90200E+02  9.16680E+04
       297     2960.0  1.50400E+02  9.31720E+04
       298     2970.0  1.69300E+02  9.48650E+04
       299     2980.0  1.11700E+02  9.59820E+04
       300     2990.0  1.44200E+02  9.74240E+04
       301     3000.0  1.89200E+02  9.93160E+04
       302     3010.0  1.77700E+02  1.01093E+05
       303     3020.0  1.57700E+02  1.02670E+05
       304     3030.0  2.22400E+02  1.04894E+05
       305     3040.0  1.90400E+02  1.06798E+05
       306     3050.0  1.50000E+02  1.08298E+05
       307     3060.0  1.50000E+02  1.09798E+05
       308     3070.0  1.76800E+02  1.11566E+05
       309     3080.0  1.91700E+02  1.13483E+05
       310     3090.0  2.64800E+02  1.16131E+05
       311     3100.0  2.09600E+02  1.18227E+05
       312     3110.0  2.23800E+02  1.20465E+05
       313     3120.0  1.94300E+02  1.22408E+05
       314     3130.0  1.73300E+02  1.24141E+05
       315     3140.0  1.52400E+02  1.25665E+05
       316     3150.0  2.17100E+02  1.27836E+05
       317     3160.0  2.62000E+02  1.30456E+05
       318     3170.0  2.80900E+02  1.33265E+05
       319     3180.0  2.88900E+02  1.36154E+05
       320     3190.0  2.03700E+02  1.38191E+05
       321     3200.0  2.03900E+02  1.40230E+05
       322     3210.0  2.31100E+02  1.42541E+05
       323     3220.0  2.05200E+02  1.44593E+05
       324     3230.0  2.11700E+02  1.46710E+05
       325     3240.0  3.01300E+02  1.49723E+05
       326     3250.0  2.80200E+02  1.52525E+05
       327     3260.0  2.83400E+02  1.55359E+05
       328     3270.0  2.54200E+02  1.57901E+05
       329     3280.0  1.99900E+02  1.59900E+05
       330     3290.0  2.52400E+02  1.62424E+05
       331     3300.0  2.71100E+02  1.65135E+05
       332     3310.0  2.30000E+02  1.67435E+05
       333     3320.0  3.17900E+02  1.70614E+05
       334     3330.0  3.56700E+02  1.74181E+05
       335     3340.0  3.23700E+02  1.77418E+05
       336     3350.0  2.37700E+02  1.79795E+05
       337     3360.0  2.39100E+02  1.82186E+05
       338     3370.0  2.50700E+02  1.84693E+05
       339     3380.0  3.47400E+02  1.88167E+05
       340     3390.0  3.77200E+02  1.91939E+05
       341     3400.0  3.52400E+02  1.95463E+05
       342     3410.0  3.24900E+02  1.98712E+05
       343     3420.0  3.41600E+02  2.02128E+05
       344     3430.0  2.57500E+02  2.04703E+05
       345     3440.0  2.85100E+02  2.07554E+05
       346     3450.0  3.27000E+02  2.10824E+05
       347     3460.0  4.06100E+02  2.14885E+05
       348     3470.0  4.20400E+02  2.19089E+05
       349     3480.0  3.68100E+02  2.22770E+05
       350     3490.0  3.77700E+02  2.26547E+05
       351     3500.0  3.83000E+02  2.30377E+05
       352     3510.0  3.18000E+02  2.33557E+05
       353     3520.0  2.66500E+02  2.36222E+05
       354     3530.0  3.91200E+02  2.40134E+05
       355     3540.0  4.46500E+02  2.44599E+05
       356     3550.0  4.85600E+02  2.49455E+05
       357     3560.0  4.29400E+02  2.53749E+05
       358     3570.0  3.55300E+02  2.57302E+05
       359     3580.0  3.26200E+02  2.60564E+05
       360     3590.0  4.07700E+02  2.64641E+05
       361     3600.0  3.72200E+02  2.68363E+05
       362     3610.0  3.87800E+02  2.72241E+05
       363     3620.0  5.06600E+02  2.77307E+05
       364     3630.0  5.31500E+02  2.82622E+05
       365     3640.0  4.87000E+02  2.87492E+05
       366     3650.0  3.98600E+02  2.91478E+05
       367     3660.0  3.29700E+02  2.94775E+05
       368     3670.0  4.47900E+02  2.99254E+05
       369     3680.0  4.87200E+02  3.04126E+05
       370     3690.0  5.60300E+02  3.09729E+05
       371     3700.0  4.93300E+02  3.14662E+05
       372     3710.0  5.31800E+02  3.19980E+05
       373     3720.0  4.50800E+02  3.24488E+05
       374     3730.0  4.75800E+02  3.29246E+05
       375     3740.0  4.71800E+02  3.33964E+05
       376     3750.0  4.88100E+02  3.38845E+05
       377     3760.0  5.21200E+02  3.44057E+05
       378     3770.0  6.01100E+02  3.50068E+05
       379     3780.0  5.82600E+02  3.55894E+05
       380     3790.0  5.85600E+02  3.61750E+05
       381     3800.0  6.03300E+02  3.67783E+05
       382     3810.0  4.59400E+02  3.72377E+05
       383     3820.0  4.83400E+02  3.77211E+05
       384     3830.0  6.55400E+02  3.83765E+05
       385     3840.0  6.45900E+02  3.90224E+05
       386     3850.0  6.44600E+02  3.96670E+05
       387     3860.0  6.66300E+02  4.03333E+05
       388     3870.0  5.73100E+02  4.09064E+05
       389     3880.0  5.70900E+02  4.14773E+05
       390     3890.0  6.32000E+02  4.21093E+05
       391     3900.0  5.10400E+02  4.26197E+05
       392     3910.0  6.11000E+02  4.32307E+05
       393     3920.0  7.97400E+02  4.40281E+05
       394     3930.0  7.47900E+02  4.47760E+05
       395     3940.0  6.93300E+02  4.54693E+05
       396     3950.0  6.36400E+02  4.61057E+05
       397     3960.0  5.42100E+02  4.66478E+05
       398     3970.0  6.63000E+02  4.73108E+05
       399     3980.0  7.71000E+02  4.80818E+05
       400     3990.0  7.49000E+02  4.88308E+05
       401     4000.0  8.11600E+02  4.96424E+05
       402     4010.0  8.14200E+02  5.04566E+05
       403     4020.0  7.34500E+02  5.11911E+05
       404     4030.0  7.32100E+02  5.19232E+05
       405     4040.0  7.04800E+02  5.26280E+05
       406     4050.0  6.84300E+02  5.33123E+05
       407     4060.0  7.56000E+02  5.40683E+05
       408     4070.0  9.16400E+02  5.49847E+05
       409     4080.0  8.70600E+02  5.58553E+05
       410     4090.0  9.65500E+02  5.68208E+05
       411     4100.0  8.71400E+02  5.76922E+05
       412     4110.0  7.28000E+02  5.84202E+05
       413     4120.0  8.16000E+02  5.92362E+05
       414     4130.0  9.08300E+02  6.01445E+05
       415     4140.0  8.32100E+02  6.09766E+05
       416     4150.0  1.01880E+03  6.19954E+05
       417     4160.0  9.96900E+02  6.29923E+05
       418     4170.0  9.48600E+02  6.39409E+05
       419     4180.0  9.20200E+02  6.48611E+05
       420     4190.0  8.56000E+02  6.57171E+05
       421     4200.0  7.83800E+02  6.65009E+05
       422     4210.0  1.06010E+03  6.75610E+05
       423     4220.0  1.13780E+03  6.86988E+05
       424     4230.0  1.09100E+03  6.97898E+05
       425     4240.0  9.93200E+02  7.07830E+05
       426     4250.0  9.71900E+02  7.17549E+05
       427     4260.0  8.90100E+02  7.26450E+05
       428     4270.0  1.01180E+03  7.36568E+05
       429     4280.0  1.05750E+03  7.47143E+05
       430     4290.0  1.20030E+03  7.59146E+05
       431     4300.0  1.24360E+03  7.71582E+05
       432     4310.0  1.18800E+03  7.83462E+05
       433     4320.0  1.18110E+03  7.95273E+05
       434     4330.0  1.13670E+03  8.06640E+05
       435     4340.0  9.64800E+02  8.16288E+05
       436     4350.0  1.02730E+03  8.26561E+05
       437     4360.0  1.12750E+03  8.37836E+05
       438     4370.0  1.28870E+03  8.50723E+05
       439     4380.0  1.44770E+03  8.65200E+05
       440     4390.0  1.43210E+03  8.79521E+05
       441     4400.0  1.23310E+03  8.91852E+05
       442     4410.0  1.13670E+03  9.03219E+05
       443     4420.0  1.22500E+03  9.15469E+05
       444     4430.0  1.19300E+03  9.27399E+05
       445     4440.0  1.37420E+03  9.41141E+05
       446     4450.0  1.47100E+03  9.55851E+05
       447     4460.0  1.45790E+03  9.70430E+05
       448     4470.0  1.39070E+03  9.84337E+05
       449     4480.0  1.37130E+03  9.98050E+05
       450     4490.0  1.23310E+03  1.01038E+06
       451     4500.0  1.36770E+03  1.02406E+06
       452     4510.0  1.55720E+03  1.03963E+06
       453     4520.0  1.51960E+03  1.05483E+06
       454     4530.0  1.55150E+03  1.07034E+06
       455     4540.0  1.56440E+03  1.08598E+06
       456     4550.0  1.46500E+03  1.10064E+06
       457     4560.0  1.47310E+03  1.11537E+06
       458     4570.0  1.48440E+03  1.13021E+06
       459     4580.0  1.57230E+03  1.14593E+06
       460     4590.0  1.65900E+03  1.16252E+06
       461     4600.0  1.86100E+03  1.18113E+06
       462     4610.0  1.67920E+03  1.19792E+06
       463     4620.0  1.81070E+03  1.21603E+06
       464     4630.0  1.63090E+03  1.23234E+06
       465     4640.0  1.49780E+03  1.24732E+06
       466     4650.0  1.54890E+03  1.26281E+06
       467     4660.0  1.77790E+03  1.28059E+06
       468     4670.0  1.92230E+03  1.29981E+06
       469     4680.0  2.12180E+03  1.32103E+06
       470     4690.0  2.07580E+03  1.34179E+06
       471     4700.0  1.64120E+03  1.35820E+06
       472     4710.0  1.78630E+03  1.37606E+06
       473     4720.0  1.83630E+03  1.39442E+06
       474     4730.0  1.78610E+03  1.41228E+06
       475     4740.0  1.95890E+03  1.43187E+06
       476     4750.0  2.16850E+03  1.45356E+06
       477     4760.0  2.09610E+03  1.47452E+06
       478     4770.0  2.15570E+03  1.49608E+06
       479     4780.0  2.07660E+03  1.51684E+06
       480     4790.0  1.76700E+03  1.53451E+06
       481     4800.0  2.10710E+03  1.55558E+06
       482     4810.0  2.18170E+03  1.57740E+06
       483     4820.0  2.08760E+03  1.59828E+06
       484     4830.0  2.46120E+03  1.62289E+06
       485     4840.0  2.32690E+03  1.64616E+06
       486     4850.0  2.26360E+03  1.66879E+06
       487     4860.0  2.23830E+03  1.69118E+06
       488     4870.0  2.17670E+03  1.71294E+06
       489     4880.0  2.08870E+03  1.73383E+06
       490     4890.0  2.60580E+03  1.75989E+06
       491     4900.0  2.50860E+03  1.78498E+06
       492     4910.0  2.58380E+03  1.81081E+06
       493     4920.0  2.56590E+03  1.83647E+06
       494     4930.0  2.42040E+03  1.86068E+06
       495     4940.0  2.17540E+03  1.88243E+06
       496     4950.0  2.41110E+03  1.90654E+06
       497     4960.0  2.60070E+03  1.93255E+06
       498     4970.0  2.74640E+03  1.96001E+06
       499     4980.0  2.97270E+03  1.98974E+06
       500     4990.0  2.74120E+03  2.01715E+06
       501     5000.0  2.63460E+03  2.04350E+06
       502     5010.0  2.79430E+03  2.07144E+06
       503     5020.0  2.54380E+03  2.09688E+06
       504     5030.0  2.54170E+03  2.12230E+06
       505     5040.0  2.95070E+03  2.15180E+06
       506     5050.0  3.17870E+03  2.18359E+06
       507     5060.0  3.15180E+03  2.21511E+06
       508     5070.0  3.10420E+03  2.24615E+06
       509     5080.0  2.77050E+03  2.27385E+06
       510     5090.0  2.76160E+03  2.30147E+06
       511     5100.0  3.01230E+03  2.33159E+06
       512     5110.0  3.05000E+03  2.36209E+06
       513     5120.0  3.14590E+03  2.39355E+06
       514     5130.0  3.41480E+03  2.42770E+06
       515     5140.0  3.45020E+03  2.46220E+06
       516     5150.0  3.40520E+03  2.49625E+06
       517     5160.0  3.16390E+03  2.52789E+06
       518     5170.0  2.87990E+03  2.55669E+06
       519     5180.0  3.31080E+03  2.58980E+06
       520     5190.0  3.43560E+03  2.62416E+06
       521     5200.0  3.62930E+03  2.66045E+06
       522     5210.0  3.71690E+03  2.69762E+06
       523     5220.0  3.63850E+03  2.73400E+06
       524     5230.0  3.41650E+03  2.76817E+06
       525     5240.0  3.45960E+03  2.80276E+06
       526     5250.0  3.52090E+03  2.83797E+06
       527     5260.0  3.53570E+03  2.87333E+06
       528     5270.0  3.92230E+03  2.91255E+06
       529     5280.0  4.00530E+03  2.95261E+06
       530     5290.0  4.00590E+03  2.99266E+06
       531     5300.0  3.90570E+03  3.03172E+06
       532     5310.0  3.95890E+03  3.07131E+06
       533     5320.0  3.72390E+03  3.10855E+06
       534     5330.0  3.88490E+03  3.14740E+06
       535     5340.0  4.38730E+03  3.19127E+06
       536     5350.0  4.29470E+03  3.23422E+06
       537     5360.0  4.38470E+03  3.27807E+06
       538     5370.0  4.29370E+03  3.32100E+06
       539     5380.0  4.15650E+03  3.36257E+06
       540     5390.0  4.29730E+03  3.40554E+06
       541     5400.0  4.33590E+03  3.44890E+06
       542     5410.0  4.18280E+03  3.49073E+06
       543     5420.0  4.49340E+03  3.53566E+06
       544     5430.0  4.90660E+03  3.58473E+06
       545     5440.0  4.85160E+03  3.63324E+06
       546     5450.0  4.89860E+03  3.68223E+06
       547     5460.0  4.35290E+03  3.72576E+06
       548     5470.0  4.19240E+03  3.76768E+06
       549     5480.0  4.75140E+03  3.81520E+06
       550     5490.0  4.98170E+03  3.86501E+06
       551     5500.0  5.02520E+03  3.91527E+06
       552     5510.0  5.52040E+03  3.97047E+06
       553     5520.0  5.26750E+03  4.02314E+06
       554     5530.0  4.86000E+03  4.07174E+06
       555     5540.0  5.13670E+03  4.12311E+06
       556     5550.0  4.87390E+03  4.17185E+06
       557     5560.0  4.97400E+03  4.22159E+06
       558     5570.0  5.45570E+03  4.27615E+06
       559     5580.0  5.65970E+03  4.33274E+06
       560     5590.0  5.57780E+03  4.38852E+06
       561     5600.0  5.97830E+03  4.44831E+06
       562     5610.0  5.67070E+03  4.50501E+06
       563     5620.0  5.36870E+03  4.55870E+06
       564     5630.0  5.75450E+03  4.61624E+06
       565     5640.0  5.86560E+03  4.67490E+06
       566     5650.0  5.76240E+03  4.73252E+06
       567     5660.0  6.50190E+03  4.79754E+06
       568     5670.0  6.17070E+03  4.85925E+06
       569     5680.0  6.03340E+03  4.91958E+06
       570     5690.0  6.30610E+03  4.98265E+06
       571     5700.0  5.84380E+03  5.04108E+06
       572     5710.0  5.88660E+03  5.09995E+06
       573     5720.0  6.78140E+03  5.16776E+06
       574     5730.0  6.77320E+03  5.23550E+06
       575     5740.0  6.98180E+03  5.30531E+06
       576     5750.0  6.63070E+03  5.37162E+06
       577     5760.0  6.19660E+03  5.43359E+06
       578     5770.0  6.16570E+03  5.49524E+06
       579     5780.0  6.77040E+03  5.56295E+06
       580     5790.0  6.82490E+03  5.63120E+06
       581     5800.0  7.58200E+03  5.70702E+06
       582     5810.0  7.55120E+03  5.78253E+06
       583     5820.0  7.37730E+03  5.85630E+06
       584     5830.0  7.28660E+03  5.92917E+06
       585     5840.0  7.26130E+03  6.00178E+06
       586     5850.0  6.74220E+03  6.06920E+06
       587     5860.0  7.13320E+03  6.14054E+06
       588     5870.0  7.62730E+03  6.21681E+06
       589     5880.0  7.87340E+03  6.29554E+06
       590     5890.0  8.44490E+03  6.37999E+06
       591     5900.0  8.40920E+03  6.46408E+06
       592     5910.0  7.89870E+03  6.54307E+06
       593     5920.0  7.62440E+03  6.61931E+06
       594     5930.0  7.76070E+03  6.69692E+06
       595     5940.0  8.07010E+03  6.77762E+06
       596     5950.0  8.57120E+03  6.86333E+06
       597     5960.0  8.85850E+03  6.95192E+06
       598     5970.0  8.67630E+03  7.03868E+06
       599     5980.0  8.76590E+03  7.12634E+06
       600     5990.0  8.49770E+03  7.21132E+06
       601     6000.0  8.32500E+03  7.29457E+06
       602     6010.0  8.80610E+03  7.38263E+06
       603     6020.0  9.14830E+03  7.47411E+06
       604     6030.0  9.38120E+03  7.56792E+06
       605     6040.0  9.59310E+03  7.66386E+06
       606     6050.0  9.34320E+03  7.75729E+06
       607     6060.0  8.81070E+03  7.84539E+06
       608     6070.0  9.36080E+03  7.93900E+06
       609     6080.0  9.34910E+03  8.03249E+06
       610     6090.0  9.86120E+03  8.13110E+06
       611     6100.0  1.02147E+04  8.23325E+06
       612     6110.0  1.04654E+04  8.33791E+06
       613     6120.0  1.02559E+04  8.44046E+06
       614     6130.0  1.04048E+04  8.54451E+06
       615     6140.0  1.00307E+04  8.64482E+06
       616     6150.0  9.76200E+03  8.74244E+06
       617     6160.0  1.01427E+04  8.84387E+06
       618     6170.0  1.07686E+04  8.95155E+06
       619     6180.0  1.13108E+04  9.06466E+06
       620     6190.0  1.17607E+04  9.18227E+06
       621     6200.0  1.14223E+04  9.29649E+06
       622     6210.0  1.06939E+04  9.40343E+06
       623     6220.0  1.09417E+04  9.51285E+06
       624     6230.0  1.11694E+04  9.62454E+06
       625     6240.0  1.11968E+04  9.73651E+06
       626     6250.0  1.20222E+04  9.85673E+06
       627     6260.0  1.20194E+04  9.97692E+06
       628     6270.0  1.23952E+04  1.01009E+07
       629     6280.0  1.24450E+04  1.02253E+07
       630     6290.0  1.19294E+04  1.03446E+07
       631     6300.0  1.14134E+04  1.04588E+07
       632     6310.0  1.24705E+04  1.05835E+07
       633     6320.0  1.26370E+04  1.07098E+07
       634     6330.0  1.27902E+04  1.08377E+07
       635     6340.0  1.38698E+04  1.09764E+07
       636     6350.0  1.28514E+04  1.11049E+07
       637     6360.0  1.29861E+04  1.12348E+07
       638     6370.0  1.33590E+04  1.13684E+07
       639     6380.0  1.30132E+04  1.14985E+07
       640     6390.0  1.30842E+04  1.16294E+07
       641     6400.0  1.45832E+04  1.17752E+07
       642     6410.0  1.39933E+04  1.19151E+07
       643     6420.0  1.44134E+04  1.20593E+07
       644     6430.0  1.46564E+04  1.22058E+07
       645     6440.0  1.37319E+04  1.23431E+07
       646     6450.0  1.38978E+04  1.24821E+07
       647     6460.0  1.44457E+04  1.26266E+07
       648     6470.0  1.49037E+04  1.27756E+07
       649     6480.0  1.55105E+04  1.29307E+07
       650     6490.0  1.60453E+04  1.30912E+07
       651     6500.0  1.54657E+04  1.32458E+07
       652     6510.0  1.52147E+04  1.33980E+07
       653     6520.0  1.58134E+04  1.35561E+07
       654     6530.0  1.48400E+04  1.37045E+07
       655     6540.0  1.58002E+04  1.38625E+07
       656     6550.0  1.64332E+04  1.40269E+07
       657     6560.0  1.72679E+04  1.41995E+07
       658     6570.0  1.73007E+04  1.43725E+07
       659     6580.0  1.69145E+04  1.45417E+07
       660     6590.0  1.58252E+04  1.46999E+07
       661     6600.0  1.64686E+04  1.48646E+07
       662     6610.0  1.71190E+04  1.50358E+07
       663     6620.0  1.71696E+04  1.52075E+07
       664     6630.0  1.82791E+04  1.53903E+07
       665     6640.0  1.83016E+04  1.55733E+07
       666     6650.0  1.83704E+04  1.57570E+07
       667     6660.0  1.86827E+04  1.59438E+07
       668     6670.0  1.79715E+04  1.61236E+07
       669     6680.0  1.73350E+04  1.62969E+07
       670     6690.0  1.86222E+04  1.64831E+07
       671     6700.0  1.92327E+04  1.66755E+07
       672     6710.0  1.93955E+04  1.68694E+07
       673     6720.0  2.02498E+04  1.70719E+07
       674     6730.0  1.97420E+04  1.72693E+07
       675     6740.0  1.95707E+04  1.74650E+07
       676     6750.0  1.95410E+04  1.76604E+07
       677     6760.0  1.96878E+04  1.78573E+07
       678     6770.0  2.01191E+04  1.80585E+07
       679     6780.0  2.12982E+04  1.82715E+07
       680     6790.0  2.13170E+04  1.84847E+07
       681     6800.0  2.15377E+04  1.87000E+07
       682     6810.0  2.13195E+04  1.89132E+07
       683     6820.0  2.11510E+04  1.91248E+07
       684     6830.0  2.14002E+04  1.93388E+07
       685     6840.0  2.19424E+04  1.95582E+07
       686     6850.0  2.28174E+04  1.97864E+07
       687     6860.0  2.31739E+04  2.00181E+07
       688     6870.0  2.32508E+04  2.02506E+07
       689     6880.0  2.28180E+04  2.04788E+07
       690     6890.0  2.25082E+04  2.07039E+07
       691     6900.0  2.34771E+04  2.09386E+07
       692     6910.0  2.32335E+04  2.11710E+07
       693     6920.0  2.38268E+04  2.14092E+07
       694     6930.0  2.44910E+04  2.16541E+07
       695     6940.0  2.51528E+04  2.19057E+07
       696     6950.0  2.52910E+04  2.21586E+07
       697     6960.0  2.57648E+04  2.24162E+07
       698     6970.0  2.39069E+04  2.26553E+07
       699     6980.0  2.41491E+04  2.28968E+07
       700     6990.0  2.55261E+04  2.31521E+07
       701     7000.0  2.61230E+04  2.34133E+07
       702     7010.0  2.68388E+04  2.36817E+07
       703     7020.0  2.81430E+04  2.39631E+07
       704     7030.0  2.71942E+04  2.42350E+07
       705     7040.0  2.67097E+04  2.45021E+07
       706     7050.0  2.71675E+04  2.47738E+07
       707     7060.0  2.66361E+04  2.50402E+07
       708     7070.0  2.74767E+04  2.53149E+07
       709     7080.0  2.88345E+04  2.56033E+07
       710     7090.0  2.87907E+04  2.58912E+07
       711     7100.0  2.95329E+04  2.61865E+07
       712     7110.0  2.98835E+04  2.64854E+07
       713     7120.0  2.93699E+04  2.67791E+07
       714     7130.0  2.93597E+04  2.70727E+07
       715     7140.0  3.02251E+04  2.73749E+07
       716     7150.0  2.99555E+04  2.76745E+07
       717     7160.0  3.11932E+04  2.79864E+07
       718     7170.0  3.23854E+04  2.83102E+07
       719     7180.0  3.10988E+04  2.86212E+07
       720     7190.0  3.14337E+04  2.89356E+07
       721     7200.0  3.22661E+04  2.92582E+07
       722     7210.0  3.12246E+04  2.95705E+07
       723     7220.0  3.22275E+04  2.98928E+07
       724     7230.0  3.43087E+04  3.02358E+07
       725     7240.0  3.36485E+04  3.05723E+07
       726     7250.0  3.50809E+04  3.09231E+07
       727     7260.0  3.41572E+04  3.12647E+07
       728     7270.0  3.24710E+04  3.15894E+07
       729     7280.0  3.35299E+04  3.19247E+07
       730     7290.0  3.48404E+04  3.22731E+07
       731     7300.0  3.53212E+04  3.26263E+07
       732     7310.0  3.79017E+04  3.30053E+07
       733     7320.0  3.74512E+04  3.33799E+07
       734     7330.0  3.67983E+04  3.37478E+07
       735     7340.0  3.74295E+04  3.41221E+07
       736     7350.0  3.65485E+04  3.44876E+07
       737     7360.0  3.60200E+04  3.48478E+07
       738     7370.0  3.77433E+04  3.52253E+07
       739     7380.0  3.85774E+04  3.56110E+07
       740     7390.0  3.97398E+04  3.60084E+07
       741     7400.0  4.10482E+04  3.64189E+07
       742     7410.0  4.06035E+04  3.68249E+07
       743     7420.0  3.94389E+04  3.72193E+07
       744     7430.0  3.97835E+04  3.76172E+07
       745     7440.0  3.94478E+04  3.80116E+07
       746     7450.0  4.13375E+04  3.84250E+07
       747     7460.0  4.27372E+04  3.88524E+07
       748     7470.0  4.30965E+04  3.92834E+07
       749     7480.0  4.26467E+04  3.97098E+07
       750     7490.0  4.35413E+04  4.01452E+07
       751     7500.0  4.27485E+04  4.05727E+07
       752     7510.0  4.26935E+04  4.09997E+07
       753     7520.0  4.45514E+04  4.14452E+07
       754     7530.0  4.47847E+04  4.18930E+07
       755     7540.0  4.63011E+04  4.23560E+07
       756     7550.0  4.66565E+04  4.28226E+07
       757     7560.0  4.60963E+04  4.32836E+07
       758     7570.0  4.48248E+04  4.37318E+07
       759     7580.0  4.65847E+04  4.41977E+07
       760     7590.0  4.70267E+04  4.46679E+07
       761     7600.0  4.87847E+04  4.51558E+07
       762     7610.0  4.98195E+04  4.56540E+07
       763     7620.0  4.97324E+04  4.61513E+07
       764     7630.0  5.04529E+04  4.66558E+07
       765     7640.0  4.99393E+04  4.71552E+07
       766     7650.0  4.94271E+04  4.76495E+07
       767     7660.0  4.98985E+04  4.81485E+07
       768     7670.0  5.07510E+04  4.86560E+07
       769     7680.0  5.25854E+04  4.91818E+07
       770     7690.0  5.42628E+04  4.97245E+07
       771     7700.0  5.49706E+04  5.02742E+07
       772     7710.0  5.33262E+04  5.08074E+07
       773     7720.0  5.37513E+04  5.13449E+07
       774     7730.0  5.33401E+04  5.18783E+07
       775     7740.0  5.45744E+04  5.24241E+07
       776     7750.0  5.54594E+04  5.29787E+07
       777     7760.0  5.76207E+04  5.35549E+07
       778     7770.0  5.70285E+04  5.41252E+07
       779     7780.0  5.88519E+04  5.47137E+07
       780     7790.0  5.92642E+04  5.53063E+07
       781     7800.0  5.69331E+04  5.58757E+07
       782     7810.0  5.75053E+04  5.64507E+07
       783     7820.0  5.97367E+04  5.70481E+07
       784     7830.0  6.03787E+04  5.76519E+07
       785     7840.0  6.18920E+04  5.82708E+07
       786     7850.0  6.36310E+04  5.89071E+07
       787     7860.0  6.15562E+04  5.95227E+07
       788     7870.0  6.23948E+04  6.01466E+07
       789     7880.0  6.37730E+04  6.07843E+07
       790     7890.0  6.26832E+04  6.14112E+07
       791     7900.0  6.48650E+04  6.20598E+07
       792     7910.0  6.63940E+04  6.27238E+07
       793     7920.0  6.62956E+04  6.33867E+07
       794     7930.0  6.77641E+04  6.40644E+07
       795     7940.0  6.77331E+04  6.47417E+07
       796     7950.0  6.57436E+04  6.53991E+07
       797     7960.0  6.83170E+04  6.60823E+07
       798     7970.0  6.88111E+04  6.67704E+07
       799     7980.0  6.95696E+04  6.74661E+07
       800     7990.0  7.27618E+04  6.81937E+07
       801     8000.0  7.25043E+04  6.89188E+07
       802     8010.0  7.16563E+04  6.96353E+07
       803     8020.0  7.23186E+04  7.03585E+07
       804     8030.0  7.29190E+04  7.10877E+07
       805     8040.0  7.15529E+04  7.18032E+07
       806     8050.0  7.54365E+04  7.25576E+07
       807     8060.0  7.64531E+04  7.33221E+07
       808     8070.0  7.79325E+04  7.41015E+07
       809     8080.0  7.95693E+04  7.48971E+07
       810     8090.0  7.71559E+04  7.56687E+07
       811     8100.0  7.57519E+04  7.64262E+07
       812     8110.0  7.81624E+04  7.72079E+07
       813     8120.0  7.97571E+04  7.80054E+07
       814     8130.0  7.99747E+04  7.88052E+07
       815     8140.0  8.45413E+04  7.96506E+07
       816     8150.0  8.31969E+04  8.04826E+07
       817     8160.0  8.35447E+04  8.13180E+07
       818     8170.0  8.57277E+04  8.21753E+07
       819     8180.0  8.30650E+04  8.30059E+07
       820     8190.0  8.32470E+04  8.38384E+07
       821     8200.0  8.61020E+04  8.46994E+07
       822     8210.0  8.76276E+04  8.55757E+07
       823     8220.0  8.88929E+04  8.64646E+07
       824     8230.0  9.10039E+04  8.73747E+07
       825     8240.0  8.95793E+04  8.82705E+07
       826     8250.0  9.02343E+04  8.91728E+07
       827     8260.0  9.05402E+04  9.00782E+07
       828     8270.0  9.02756E+04  9.09810E+07
       829     8280.0  9.36786E+04  9.19177E+07
       830     8290.0  9.52859E+04  9.28706E+07
       831     8300.0  9.57973E+04  9.38286E+07
       832     8310.0  9.64915E+04  9.47935E+07
       833     8320.0  9.68616E+04  9.57621E+07
       834     8330.0  9.58619E+04  9.67207E+07
       835     8340.0  9.86463E+04  9.77072E+07
       836     8350.0  1.00254E+05  9.87097E+07
       837     8360.0  1.01462E+05  9.97243E+07
       838     8370.0  1.03674E+05  1.00761E+08
       839     8380.0  1.03394E+05  1.01795E+08
       840     8390.0  1.03137E+05  1.02826E+08
       841     8400.0  1.02484E+05  1.03851E+08
       842     8410.0  1.05189E+05  1.04903E+08
       843     8420.0  1.05510E+05  1.05958E+08
       844     8430.0  1.08221E+05  1.07040E+08
       845     8440.0  1.09736E+05  1.08138E+08
       846     8450.0  1.10953E+05  1.09247E+08
       847     8460.0  1.12265E+05  1.10370E+08
       848     8470.0  1.12520E+05  1.11495E+08
       849     8480.0  1.09850E+05  1.12594E+08
       850     8490.0  1.11314E+05  1.13707E+08
       851     8500.0  1.13845E+05  1.14845E+08
       852     8510.0  1.16006E+05  1.16005E+08
       853     8520.0  1.19517E+05  1.17200E+08
       854     8530.0  1.20925E+05  1.18410E+08
       855     8540.0  1.19240E+05  1.19602E+08
       856     8550.0  1.20276E+05  1.20805E+08
       857     8560.0  1.19667E+05  1.22002E+08
       858     8570.0  1.20360E+05  1.23205E+08
       859     8580.0  1.23510E+05  1.24440E+08
       860     8590.0  1.26031E+05  1.25701E+08
       861     8600.0  1.25942E+05  1.26960E+08
       862     8610.0  1.29617E+05  1.28256E+08
       863     8620.0  1.29168E+05  1.29548E+08
       864     8630.0  1.28983E+05  1.30838E+08
       865     8640.0  1.30533E+05  1.32143E+08
       866     8650.0  1.32247E+05  1.33465E+08
       867     8660.0  1.32134E+05  1.34787E+08
       868     8670.0  1.36938E+05  1.36156E+08
       869     8680.0  1.37992E+05  1.37536E+08
       870     8690.0  1.35894E+05  1.38895E+08
       871     8700.0  1.38489E+05  1.40280E+08
       872     8710.0  1.39096E+05  1.41671E+08
       873     8720.0  1.39459E+05  1.43066E+08
       874     8730.0  1.42871E+05  1.44494E+08
       875     8740.0  1.45748E+05  1.45952E+08
       876     8750.0  1.45848E+05  1.47410E+08
       877     8760.0  1.49820E+05  1.48908E+08
       878     8770.0  1.46945E+05  1.50378E+08
       879     8780.0  1.44284E+05  1.51821E+08
       880     8790.0  1.49036E+05  1.53311E+08
       881     8800.0  1.50026E+05  1.54811E+08
       882     8810.0  1.53923E+05  1.56351E+08
       883     8820.0  1.60138E+05  1.57952E+08
       884     8830.0  1.57928E+05  1.59531E+08
       885     8840.0  1.57403E+05  1.61105E+08
       886     8850.0  1.60276E+05  1.62708E+08
       887     8860.0  1.57249E+05  1.64280E+08
       888     8870.0  1.58473E+05  1.65865E+08
       889     8880.0  1.64311E+05  1.67508E+08
       890     8890.0  1.64220E+05  1.69150E+08
       891     8900.0  1.69757E+05  1.70848E+08
       892     8910.0  1.71646E+05  1.72565E+08
       893     8920.0  1.70180E+05  1.74266E+08
       894     8930.0  1.69228E+05  1.75959E+08
       895     8940.0  1.71611E+05  1.77675E+08
       896     8950.0  1.70868E+05  1.79383E+08
       897     8960.0  1.76444E+05  1.81148E+08
       898     8970.0  1.80711E+05  1.82955E+08
       899     8980.0  1.80250E+05  1.84757E+08
       900     8990.0  1.81274E+05  1.86570E+08
       901     9000.0  1.83413E+05  1.88404E+08
       902     9010.0  1.82493E+05  1.90229E+08
       903     9020.0  1.83773E+05  1.92067E+08
       904     9030.0  1.87525E+05  1.93942E+08
       905     9040.0  1.89317E+05  1.95835E+08
       906     9050.0  1.93926E+05  1.97775E+08
       907     9060.0  1.94811E+05  1.99723E+08
       908     9070.0  1.92506E+05  2.01648E+08
       909     9080.0  1.93661E+05  2.03584E+08
       910     9090.0  1.95599E+05  2.05540E+08
       911     9100.0  1.99336E+05  2.07534E+08
       912     9110.0  2.04356E+05  2.09577E+08
       913     9120.0  2.06334E+05  2.11641E+08
       914     9130.0  2.05455E+05  2.13695E+08
       915     9140.0  2.09437E+05  2.15790E+08
       916     9150.0  2.07951E+05  2.17869E+08
       917     9160.0  2.07224E+05  2.19941E+08
       918     9170.0  2.12074E+05  2.22062E+08
       919     9180.0  2.13495E+05  2.24197E+08
       920     9190.0  2.18865E+05  2.26386E+08
       921     9200.0  2.22517E+05  2.28611E+08
       922     9210.0  2.23831E+05  2.30849E+08
       923     9220.0  2.20962E+05  2.33059E+08
       924     9230.0  2.24130E+05  2.35300E+08
       925     9240.0  2.23181E+05  2.37532E+08
       926     9250.0  2.27395E+05  2.39806E+08
       927     9260.0  2.31357E+05  2.42119E+08
       928     9270.0  2.34936E+05  2.44469E+08
       929     9280.0  2.36816E+05  2.46837E+08
       930     9290.0  2.39599E+05  2.49233E+08
       931     9300.0  2.41450E+05  2.51647E+08
       932     9310.0  2.37463E+05  2.54022E+08
       933     9320.0  2.40643E+05  2.56428E+08
       934     9330.0  2.45140E+05  2.58880E+08
       935     9340.0  2.48422E+05  2.61364E+08
       936     9350.0  2.53833E+05  2.63902E+08
       937     9360.0  2.54388E+05  2.66446E+08
       938     9370.0  2.54131E+05  2.68988E+08
       939     9380.0  2.55922E+05  2.71547E+08
       940     9390.0  2.59412E+05  2.74141E+08
       941     9400.0  2.59039E+05  2.76731E+08
       942     9410.0  2.66680E+05  2.79398E+08
       943     9420.0  2.66036E+05  2.82059E+08
       944     9430.0  2.69390E+05  2.84752E+08
       945     9440.0  2.74524E+05  2.87498E+08
       946     9450.0  2.71624E+05  2.90214E+08
       947     9460.0  2.72396E+05  2.92938E+08
       948     9470.0  2.78945E+05  2.95727E+08
       949     9480.0  2.80005E+05  2.98527E+08
       950     9490.0  2.82807E+05  3.01355E+08
       951     9500.0  2.91408E+05  3.04269E+08
       952     9510.0  2.89008E+05  3.07160E+08
       953     9520.0  2.89850E+05  3.10058E+08
       954     9530.0  2.93476E+05  3.12993E+08
       955     9540.0  2.92214E+05  3.15915E+08
       956     9550.0  2.95903E+05  3.18874E+08
       957     9560.0  3.02967E+05  3.21904E+08
       958     9570.0  3.06768E+05  3.24971E+08
       959     9580.0  3.10633E+05  3.28078E+08
       960     9590.0  3.14898E+05  3.31227E+08
       961     9600.0  3.08342E+05  3.34310E+08
       962     9610.0  3.10461E+05  3.37415E+08
       963     9620.0  3.15494E+05  3.40570E+08
       964     9630.0  3.18050E+05  3.43750E+08
       965     9640.0  3.24080E+05  3.46991E+08
       966     9650.0  3.32384E+05  3.50315E+08
       967     9660.0  3.30004E+05  3.53615E+08
       968     9670.0  3.32472E+05  3.56940E+08
       969     9680.0  3.38042E+05  3.60320E+08
       970     9690.0  3.32341E+05  3.63643E+08
       971     9700.0  3.37828E+05  3.67022E+08
       972     9710.0  3.43485E+05  3.70456E+08
       973     9720.0  3.45218E+05  3.73909E+08
       974     9730.0  3.53405E+05  3.77443E+08
       975     9740.0  3.55741E+05  3.81000E+08
       976     9750.0  3.54760E+05  3.84548E+08
       977     9760.0  3.58673E+05  3.88134E+08
       978     9770.0  3.60109E+05  3.91736E+08
       979     9780.0  3.59769E+05  3.95333E+08
       980     9790.0  3.71988E+05  3.99053E+08
       981     9800.0  3.72826E+05  4.02781E+08
       982     9810.0  3.75877E+05  4.06540E+08
       983     9820.0  3.79698E+05  4.10337E+08
       984     9830.0  3.80101E+05  4.14138E+08
       985     9840.0  3.80889E+05  4.17947E+08
       986     9850.0  3.88916E+05  4.21836E+08
       987     9860.0  3.92555E+05  4.25762E+08
       988     9870.0  3.97148E+05  4.29733E+08
       989     9880.0  4.03420E+05  4.33767E+08
       990     9890.0  4.02142E+05  4.37789E+08
       991     9900.0  4.03727E+05  4.41826E+08
       992     9910.0  4.05132E+05  4.45877E+08
       993     9920.0  4.09589E+05  4.49973E+08
       994     9930.0  4.15448E+05  4.54128E+08
       995     9940.0  4.22165E+05  4.58349E+08
       996     9950.0  4.25875E+05  4.62608E+08
       997     9960.0  4.28463E+05  4.66893E+08
       998     9970.0  4.34495E+05  4.71238E+08
       999     9980.0  4.32707E+05  4.75565E+08
      1000     9990.0  4.33337E+05  4.79898E+08
      1001    10000.0  4.37670E+05  4.84275E+08
      1002    10010.0  4.42403E+05  4.88699E+08
      1003    10020.0  4.50158E+05  4.93201E+08
      1004    10030.0  4.59336E+05  4.97794E+08
      1005    10040.0  4.61528E+05  5.02409E+08
      1006    10050.0  4.60465E+05  5.07014E+08
      1007    10060.0  4.65604E+05  5.11670E+08
      1008    10070.0  4.63027E+05  5.16300E+08
      1009    10080.0  4.70055E+05  5.21001E+08
      1010    10090.0  4.77330E+05  5.25774E+08
      1011    10100.0  4.82132E+05  5.30595E+08
      1012    10110.0  4.86537E+05  5.35461E+08
      1013    10120.0  4.93757E+05  5.40398E+08
      1014    10130.0  4.94015E+05  5.45338E+08
      1015    10140.0  4.97036E+05  5.50309E+08
      1016    10150.0  5.01237E+05  5.55321E+08
      1017    10160.0  5.05483E+05  5.60376E+08
      1018    10170.0  5.11626E+05  5.65492E+08
      1019    10180.0  5.19312E+05  5.70685E+08
      1020    10190.0  5.20941E+05  5.75895E+08
      1021    10200.0  5.22526E+05  5.81120E+08
      1022    10210.0  5.28018E+05  5.86400E+08
      1023    10220.0  5.29800E+05  5.91698E+08
      1024    10230.0  5.36970E+05  5.97068E+08
      1025    10240.0  5.45795E+05  6.02526E+08
      1026    10250.0  5.46238E+05  6.07988E+08
      1027    10260.0  5.54978E+05  6.13538E+08
      1028    10270.0  5.62266E+05  6.19161E+08
      1029    10280.0  5.56369E+05  6.24724E+08
      1030    10290.0  5.56868E+05  6.30293E+08
      1031    10300.0  5.68804E+05  6.35981E+08
      1032    10310.0  5.69797E+05  6.41679E+08
      1033    10320.0  5.84118E+05  6.47520E+08
      1034    10330.0  5.96083E+05  6.53481E+08
      1035    10340.0  5.90994E+05  6.59391E+08
      1036    10350.0  5.96169E+05  6.65353E+08
      1037    10360.0  5.99436E+05  6.71347E+08
      1038    10370.0  5.97423E+05  6.77321E+08
      1039    10380.0  6.05417E+05  6.83375E+08
      1040    10390.0  6.17311E+05  6.89549E+08
      1041    10400.0  6.19070E+05  6.95739E+08
      1042    10410.0  6.36014E+05  7.02099E+08
      1043    10420.0  6.36092E+05  7.08460E+08
      1044    10430.0  6.34074E+05  7.14801E+08
      1045    10440.0  6.40091E+05  7.21202E+08
      1046    10450.0  6.42337E+05  7.27625E+08
      1047    10460.0  6.46672E+05  7.34092E+08
      1048    10470.0  6.61189E+05  7.40704E+08
      1049    10480.0  6.68931E+05  7.47393E+08
      1050    10490.0  6.69492E+05  7.54088E+08
      1051    10500.0  6.77285E+05  7.60861E+08
      1052    10510.0  6.80443E+05  7.67665E+08
      1053    10520.0  6.81978E+05  7.74485E+08
      1054    10530.0  6.91250E+05  7.81398E+08
      1055    10540.0  6.93925E+05  7.88337E+08
      1056    10550.0  7.04747E+05  7.95384E+08
      1057    10560.0  7.15120E+05  8.02536E+08
      1058    10570.0  7.18819E+05  8.09724E+08
      1059    10580.0  7.14200E+05  8.16866E+08
      1060    10590.0  7.25688E+05  8.24123E+08
      1061    10600.0  7.26388E+05  8.31387E+08
      1062    10610.0  7.39182E+05  8.38778E+08
      1063    10620.0  7.54463E+05  8.46323E+08
      1064    10630.0  7.55534E+05  8.53878E+08
      1065    10640.0  7.58255E+05  8.61461E+08
      1066    10650.0  7.67801E+05  8.69139E+08
      1067    10660.0  7.66716E+05  8.76806E+08
      1068    10670.0  7.69446E+05  8.84501E+08
      1069    10680.0  7.83344E+05  8.92334E+08
      1070    10690.0  7.89026E+05  9.00224E+08
      1071    10700.0  8.02965E+05  9.08254E+08
      1072    10710.0  8.11584E+05  9.16370E+08
      1073    10720.0  8.11609E+05  9.24486E+08
      1074    10730.0  8.15459E+05  9.32640E+08
      1075    10740.0  8.19318E+05  9.40834E+08
      1076    10750.0  8.23780E+05  9.49071E+08
      1077    10760.0  8.35265E+05  9.57424E+08
      1078    10770.0  8.46618E+05  9.65890E+08
      1079    10780.0  8.52170E+05  9.74412E+08
      1080    10790.0  8.64890E+05  9.83061E+08
      1081    10800.0  8.69198E+05  9.91753E+08
      1082    10810.0  8.72130E+05  1.00047E+09
      1083    10820.0  8.74966E+05  1.00922E+09
      1084    10830.0  8.80589E+05  1.01803E+09
      1085    10840.0  8.91402E+05  1.02694E+09
      1086    10850.0  9.03201E+05  1.03598E+09
      1087    10860.0  9.17284E+05  1.04515E+09
      1088    10870.0  9.16880E+05  1.05432E+09
      1089    10880.0  9.24421E+05  1.06356E+09
      1090    10890.0  9.29511E+05  1.07286E+09
      1091    10900.0  9.36643E+05  1.08222E+09
      1092    10910.0  9.45849E+05  1.09168E+09
      1093    10920.0  9.59574E+05  1.10128E+09
      1094    10930.0  9.61336E+05  1.11089E+09
      1095    10940.0  9.71278E+05  1.12060E+09
      1096    10950.0  9.84281E+05  1.13045E+09
      1097    10960.0  9.79065E+05  1.14024E+09
      1098    10970.0  9.92746E+05  1.15016E+09
      1099    10980.0  1.00233E+06  1.16019E+09
      1100    10990.0  1.00931E+06  1.17028E+09
      1101    11000.0  1.02307E+06  1.18051E+09
      1102    11010.0  1.03424E+06  1.19085E+09
      1103    11020.0  1.03413E+06  1.20120E+09
      1104    11030.0  1.04336E+06  1.21163E+09
      1105    11040.0  1.05060E+06  1.22213E+09
      1106    11050.0  1.05001E+06  1.23263E+09
      1107    11060.0  1.07066E+06  1.24334E+09
      1108    11070.0  1.08017E+06  1.25414E+09
      1109    11080.0  1.09090E+06  1.26505E+09
      1110    11090.0  1.10674E+06  1.27612E+09
      1111    11100.0  1.11114E+06  1.28723E+09
      1112    11110.0  1.10482E+06  1.29828E+09
      1113    11120.0  1.11624E+06  1.30944E+09
      1114    11130.0  1.12774E+06  1.32072E+09
      1115    11140.0  1.13302E+06  1.33205E+09
      1116    11150.0  1.15893E+06  1.34364E+09
      1117    11160.0  1.16798E+06  1.35532E+09
      1118    11170.0  1.17144E+06  1.36703E+09
      1119    11180.0  1.18180E+06  1.37885E+09
      1120    11190.0  1.18847E+06  1.39074E+09
      1121    11200.0  1.18829E+06  1.40262E+09
      1122    11210.0  1.20576E+06  1.41468E+09
      1123    11220.0  1.21613E+06  1.42684E+09
      1124    11230.0  1.22227E+06  1.43906E+09
      1125    11240.0  1.24845E+06  1.45154E+09
      1126    11250.0  1.24763E+06  1.46402E+09
      1127    11260.0  1.25470E+06  1.47657E+09
      1128    11270.0  1.26888E+06  1.48926E+09
      1129    11280.0  1.26966E+06  1.50195E+09
      1130    11290.0  1.27988E+06  1.51475E+09
      1131    11300.0  1.30600E+06  1.52781E+09
      1132    11310.0  1.30804E+06  1.54089E+09
      1133    11320.0  1.31880E+06  1.55408E+09
      1134    11330.0  1.33405E+06  1.56742E+09
      1135    11340.0  1.33230E+06  1.58074E+09
      1136    11350.0  1.34718E+06  1.59422E+09
      1137    11360.0  1.36361E+06  1.60785E+09
      1138    11370.0  1.37065E+06  1.62156E+09
      1139    11380.0  1.39057E+06  1.63546E+09
      1140    11390.0  1.40317E+06  1.64950E+09
      1141    11400.0  1.40391E+06  1.66353E+09
      1142    11410.0  1.41198E+06  1.67765E+09
      1143    11420.0  1.42306E+06  1.69188E+09
      1144    11430.0  1.43081E+06  1.70619E+09
      1145    11440.0  1.45377E+06  1.72073E+09
      1146    11450.0  1.46965E+06  1.73543E+09
      1147    11460.0  1.48021E+06  1.75023E+09
      1148    11470.0  1.48842E+06  1.76511E+09
      1149    11480.0  1.50329E+06  1.78015E+09
      1150    11490.0  1.50436E+06  1.79519E+09
      1151    11500.0  1.51514E+06  1.81034E+09
      1152    11510.0  1.52663E+06  1.82561E+09
      1153    11520.0  1.53966E+06  1.84100E+09
      1154    11530.0  1.56405E+06  1.85664E+09
      1155    11540.0  1.58035E+06  1.87245E+09
      1156    11550.0  1.58992E+06  1.88835E+09
      1157    11560.0  1.59627E+06  1.90431E+09
      1158    11570.0  1.60698E+06  1.92038E+09
      1159    11580.0  1.60868E+06  1.93647E+09
      1160    11590.0  1.63233E+06  1.95279E+09
      1161    11600.0  1.64608E+06  1.96925E+09
      1162    11610.0  1.65827E+06  1.98583E+09
      1163    11620.0  1.68090E+06  2.00264E+09
      1164    11630.0  1.69106E+06  2.01955E+09
      1165    11640.0  1.69888E+06  2.03654E+09
      1166    11650.0  1.71367E+06  2.05368E+09
      1167    11660.0  1.72237E+06  2.07090E+09
      1168    11670.0  1.73650E+06  2.08827E+09
      1169    11680.0  1.76088E+06  2.10588E+09
      1170    11690.0  1.77310E+06  2.12361E+09
      1171    11700.0  1.78003E+06  2.14141E+09
      1172    11710.0  1.79748E+06  2.15938E+09
      1173    11720.0  1.80425E+06  2.17742E+09
      1174    11730.0  1.82014E+06  2.19563E+09
      1175    11740.0  1.84061E+06  2.21403E+09
      1176    11750.0  1.86164E+06  2.23265E+09
      1177    11760.0  1.86300E+06  2.25128E+09
      1178    11770.0  1.89112E+06  2.27019E+09
      1179    11780.0  1.90386E+06  2.28923E+09
      1180    11790.0  1.90244E+06  2.30825E+09
      1181    11800.0  1.91529E+06  2.32741E+09
      1182    11810.0  1.93680E+06  2.34677E+09
      1183    11820.0  1.95085E+06  2.36628E+09
      1184    11830.0  1.98457E+06  2.38613E+09
      1185    11840.0  2.00404E+06  2.40617E+09
      1186    11850.0  2.00423E+06  2.42621E+09
      1187    11860.0  2.02445E+06  2.44646E+09
      1188    11870.0  2.02589E+06  2.46671E+09
      1189    11880.0  2.03664E+06  2.48708E+09
      1190    11890.0  2.06589E+06  2.50774E+09
      1191    11900.0  2.07892E+06  2.52853E+09
      1192    11910.0  2.10281E+06  2.54956E+09
      1193    11920.0  2.13715E+06  2.57093E+09
      1194    11930.0  2.13658E+06  2.59229E+09
      1195    11940.0  2.14084E+06  2.61370E+09
      1196    11950.0  2.16649E+06  2.63537E+09
      1197    11960.0  2.16721E+06  2.65704E+09
      1198    11970.0  2.19192E+06  2.67896E+09
      1199    11980.0  2.22654E+06  2.70122E+09
      1200    11990.0  2.23708E+06  2.72359E+09
      1201    12000.0  2.25419E+06  2.74614E+09
      1202    12010.0  2.27331E+06  2.76887E+09
      1203    12020.0  2.28266E+06  2.79170E+09
      1204    12030.0  2.29747E+06  2.81467E+09
      1205    12040.0  2.32471E+06  2.83792E+09
      1206    12050.0  2.32859E+06  2.86120E+09
      1207    12060.0  2.36321E+06  2.88484E+09
      1208    12070.0  2.38544E+06  2.90869E+09
      1209    12080.0  2.39496E+06  2.93264E+09
      1210    12090.0  2.40312E+06  2.95667E+09
      1211    12100.0  2.42811E+06  2.98095E+09
      1212    12110.0  2.43766E+06  3.00533E+09
      1213    12120.0  2.47066E+06  3.03004E+09
      1214    12130.0  2.50760E+06  3.05511E+09
      1215    12140.0  2.50870E+06  3.08020E+09
      1216    12150.0  2.53016E+06  3.10550E+09
      1217    12160.0  2.54814E+06  3.13098E+09
      1218    12170.0  2.55245E+06  3.15651E+09
      1219    12180.0  2.57712E+06  3.18228E+09
      1220    12190.0  2.60228E+06  3.20830E+09
      1221    12200.0  2.62589E+06  3.23456E+09
      1222    12210.0  2.65974E+06  3.26116E+09
      1223    12220.0  2.68085E+06  3.28796E+09
      1224    12230.0  2.68089E+06  3.31477E+09
      1225    12240.0  2.70918E+06  3.34187E+09
      1226    12250.0  2.71325E+06  3.36900E+09
      1227    12260.0  2.73731E+06  3.39637E+09
      1228    12270.0  2.77098E+06  3.42408E+09
      1229    12280.0  2.79382E+06  3.45202E+09
      1230    12290.0  2.81627E+06  3.48018E+09
      1231    12300.0  2.84662E+06  3.50865E+09
      1232    12310.0  2.86104E+06  3.53726E+09
      1233    12320.0  2.87184E+06  3.56598E+09
      1234    12330.0  2.89624E+06  3.59494E+09
      1235    12340.0  2.90787E+06  3.62402E+09
      1236    12350.0  2.93906E+06  3.65341E+09
      1237    12360.0  2.97214E+06  3.68313E+09
      1238    12370.0  3.00017E+06  3.71313E+09
      1239    12380.0  3.01415E+06  3.74327E+09
      1240    12390.0  3.03519E+06  3.77363E+09
      1241    12400.0  3.05455E+06  3.80417E+09
      1242    12410.0  3.07333E+06  3.83490E+09
      1243    12420.0  3.11004E+06  3.86600E+09
      1244    12430.0  3.13081E+06  3.89731E+09
      1245    12440.0  3.15162E+06  3.92883E+09
      1246    12450.0  3.17824E+06  3.96061E+09
      1247    12460.0  3.20158E+06  3.99263E+09
      1248    12470.0  3.21368E+06  4.02476E+09
      1249    12480.0  3.24919E+06  4.05726E+09
      1250    12490.0  3.27003E+06  4.08996E+09
      1251    12500.0  3.29561E+06  4.12291E+09
      1252    12510.0  3.33927E+06  4.15630E+09
      1253    12520.0  3.34958E+06  4.18980E+09
      1254    12530.0  3.36996E+06  4.22350E+09
      1255    12540.0  3.40012E+06  4.25750E+09
      1256    12550.0  3.41205E+06  4.29162E+09
      1257    12560.0  3.43505E+06  4.32597E+09
      1258    12570.0  3.48228E+06  4.36080E+09
      1259    12580.0  3.50487E+06  4.39584E+09
      1260    12590.0  3.53476E+06  4.43119E+09
      1261    12600.0  3.57650E+06  4.46696E+09
      1262    12610.0  3.58373E+06  4.50279E+09
      1263    12620.0  3.59928E+06  4.53879E+09
      1264    12630.0  3.62268E+06  4.57501E+09
      1265    12640.0  3.65319E+06  4.61155E+09
      1266    12650.0  3.68329E+06  4.64838E+09
      1267    12660.0  3.73675E+06  4.68575E+09
      1268    12670.0  3.75590E+06  4.72330E+09
      1269    12680.0  3.78395E+06  4.76114E+09
      1270    12690.0  3.81065E+06  4.79925E+09
      1271    12700.0  3.81820E+06  4.83743E+09
      1272    12710.0  3.85295E+06  4.87596E+09
      1273    12720.0  3.88990E+06  4.91486E+09
      1274    12730.0  3.90926E+06  4.95395E+09
      1275    12740.0  3.94496E+06  4.99340E+09
      1276    12750.0  3.99941E+06  5.03340E+09
      1277    12760.0  4.00145E+06  5.07341E+09
      1278    12770.0  4.03592E+06  5.11377E+09
      1279    12780.0  4.07317E+06  5.15450E+09
      1280    12790.0  4.07648E+06  5.19527E+09
      1281    12800.0  4.12583E+06  5.23653E+09
      1282    12810.0  4.16882E+06  5.27821E+09
      1283    12820.0  4.18711E+06  5.32009E+09
      1284    12830.0  4.22358E+06  5.36232E+09
      1285    12840.0  4.25788E+06  5.40490E+09
      1286    12850.0  4.26941E+06  5.44759E+09
      1287    12860.0  4.31883E+06  5.49078E+09
      1288    12870.0  4.35061E+06  5.53429E+09
      1289    12880.0  4.37360E+06  5.57802E+09
      1290    12890.0  4.43521E+06  5.62238E+09
      1291    12900.0  4.45333E+06  5.66691E+09
      1292    12910.0  4.47533E+06  5.71166E+09
      1293    12920.0  4.50573E+06  5.75672E+09
      1294    12930.0  4.53435E+06  5.80206E+09
      1295    12940.0  4.56504E+06  5.84771E+09
      1296    12950.0  4.62481E+06  5.89396E+09
      1297    12960.0  4.66076E+06  5.94057E+09
      1298    12970.0  4.69346E+06  5.98750E+09
      1299    12980.0  4.72465E+06  6.03475E+09
      1300    12990.0  4.75119E+06  6.08226E+09
      1301    13000.0  4.77892E+06  6.13005E+09
      1302    13010.0  4.81347E+06  6.17819E+09
      1303    13020.0  4.84247E+06  6.22661E+09
      1304    13030.0  4.88556E+06  6.27547E+09
      1305    13040.0  4.94537E+06  6.32492E+09
      1306    13050.0  4.97983E+06  6.37472E+09
      1307    13060.0  5.01119E+06  6.42483E+09
      1308    13070.0  5.04718E+06  6.47530E+09
      1309    13080.0  5.06332E+06  6.52594E+09
      1310    13090.0  5.09793E+06  6.57692E+09
      1311    13100.0  5.15266E+06  6.62844E+09
      1312    13110.0  5.18628E+06  6.68030E+09
      1313    13120.0  5.22509E+06  6.73256E+09
      1314    13130.0  5.28607E+06  6.78542E+09
      1315    13140.0  5.30971E+06  6.83851E+09
      1316    13150.0  5.34522E+06  6.89197E+09
      1317    13160.0  5.38627E+06  6.94583E+09
      1318    13170.0  5.41107E+06  6.99994E+09
      1319    13180.0  5.46229E+06  7.05456E+09
      1320    13190.0  5.51521E+06  7.10971E+09
      1321    13200.0  5.55071E+06  7.16522E+09
      1322    13210.0  5.58212E+06  7.22104E+09
      1323    13220.0  5.62969E+06  7.27734E+09
      1324    13230.0  5.65136E+06  7.33385E+09
      1325    13240.0  5.71060E+06  7.39096E+09
      1326    13250.0  5.75578E+06  7.44852E+09
      1327    13260.0  5.80053E+06  7.50652E+09
      1328    13270.0  5.83483E+06  7.56487E+09
      1329    13280.0  5.88776E+06  7.62375E+09
      1330    13290.0  5.91989E+06  7.68295E+09
      1331    13300.0  5.95095E+06  7.74246E+09
      1332    13310.0  5.99266E+06  7.80238E+09
      1333    13320.0  6.03309E+06  7.86271E+09
      1334    13330.0  6.09545E+06  7.92367E+09
      1335    13340.0  6.16415E+06  7.98531E+09
      1336    13350.0  6.19863E+06  8.04730E+09
      1337    13360.0  6.23725E+06  8.10967E+09
      1338    13370.0  6.27882E+06  8.17246E+09
      1339    13380.0  6.29671E+06  8.23542E+09
      1340    13390.0  6.34281E+06  8.29885E+09
      1341    13400.0  6.41865E+06  8.36304E+09
      1342    13410.0  6.44106E+06  8.42745E+09
      1343    13420.0  6.52807E+06  8.49273E+09
      1344    13430.0  6.58344E+06  8.55856E+09
      1345    13440.0  6.60253E+06  8.62459E+09
      1346    13450.0  6.64175E+06  8.69101E+09
      1347    13460.0  6.69018E+06  8.75791E+09
      1348    13470.0  6.71677E+06  8.82508E+09
      1349    13480.0  6.79265E+06  8.89300E+09
      1350    13490.0  6.85876E+06  8.96159E+09
      1351    13500.0  6.89011E+06  9.03049E+09
      1352    13510.0  6.96031E+06  9.10009E+09
      1353    13520.0  6.99326E+06  9.17003E+09
      1354    13530.0  7.03078E+06  9.24033E+09
      1355    13540.0  7.09599E+06  9.31129E+09
      1356    13550.0  7.14259E+06  9.38272E+09
      1357    13560.0  7.18000E+06  9.45452E+09
      1358    13570.0  7.26002E+06  9.52712E+09
      1359    13580.0  7.31356E+06  9.60026E+09
      1360    13590.0  7.34266E+06  9.67368E+09
      1361    13600.0  7.40370E+06  9.74772E+09
      1362    13610.0  7.44439E+06  9.82216E+09
      1363    13620.0  7.49631E+06  9.89713E+09
      1364    13630.0  7.57849E+06  9.97291E+09
      1365    13640.0  7.64576E+06  1.00494E+10
      1366    13650.0  7.67949E+06  1.01262E+10
      1367    13660.0  7.74123E+06  1.02036E+10
      1368    13670.0  7.78068E+06  1.02814E+10
      1369    13680.0  7.81493E+06  1.03595E+10
      1370    13690.0  7.89859E+06  1.04385E+10
      1371    13700.0  7.94405E+06  1.05180E+10
      1372    13710.0  8.02068E+06  1.05982E+10
      1373    13720.0  8.10205E+06  1.06792E+10
      1374    13730.0  8.14359E+06  1.07606E+10
      1375    13740.0  8.17709E+06  1.08424E+10
      1376    13750.0  8.24659E+06  1.09249E+10
      1377    13760.0  8.27324E+06  1.10076E+10
      1378    13770.0  8.34537E+06  1.10910E+10
      1379    13780.0  8.43549E+06  1.11754E+10
      1380    13790.0  8.47988E+06  1.12602E+10
      1381    13800.0  8.56280E+06  1.13458E+10
      1382    13810.0  8.62262E+06  1.14321E+10
      1383    13820.0  8.66586E+06  1.15187E+10
      1384    13830.0  8.72465E+06  1.16060E+10
      1385    13840.0  8.78394E+06  1.16938E+10
      1386    13850.0  8.82531E+06  1.17821E+10
      1387    13860.0  8.91088E+06  1.18712E+10
      1388    13870.0  8.99308E+06  1.19611E+10
      1389    13880.0  9.05092E+06  1.20516E+10
      1390    13890.0  9.12015E+06  1.21428E+10
      1391    13900.0  9.17013E+06  1.22345E+10
      1392    13910.0  9.22907E+06  1.23268E+10
      1393    13920.0  9.29307E+06  1.24197E+10
      1394    13930.0  9.38067E+06  1.25135E+10
      1395    13940.0  9.43666E+06  1.26079E+10
      1396    13950.0  9.50355E+06  1.27029E+10
      1397    13960.0  9.57543E+06  1.27987E+10
      1398    13970.0  9.62576E+06  1.28949E+10
      1399    13980.0  9.70316E+06  1.29920E+10
      1400    13990.0  9.76963E+06  1.30897E+10
      1401    14000.0  9.83975E+06  1.31881E+10
      1402    14010.0  9.91741E+06  1.32872E+10
      1403    14020.0  1.00101E+07  1.33873E+10
      1404    14030.0  1.00471E+07  1.34878E+10
      1405    14040.0  1.01231E+07  1.35890E+10
      1406    14050.0  1.01947E+07  1.36910E+10
      1407    14060.0  1.02358E+07  1.37934E+10
      1408    14070.0  1.03370E+07  1.38967E+10
      1409    14080.0  1.04174E+07  1.40009E+10
      1410    14090.0  1.04892E+07  1.41058E+10
      1411    14100.0  1.05796E+07  1.42116E+10
      1412    14110.0  1.06572E+07  1.43182E+10
      1413    14120.0  1.07015E+07  1.44252E+10
      1414    14130.0  1.07795E+07  1.45330E+10
      1415    14140.0  1.08326E+07  1.46413E+10
      1416    14150.0  1.09086E+07  1.47504E+10
      1417    14160.0  1.10240E+07  1.48606E+10
      1418    14170.0  1.11087E+07  1.49717E+10
      1419    14180.0  1.11817E+07  1.50835E+10
      1420    14190.0  1.12726E+07  1.51962E+10
      1421    14200.0  1.13288E+07  1.53095E+10
      1422    14210.0  1.13722E+07  1.54233E+10
      1423    14220.0  1.14832E+07  1.55381E+10
      1424    14230.0  1.15647E+07  1.56537E+10
      1425    14240.0  1.16224E+07  1.57700E+10
      1426    14250.0  1.17392E+07  1.58874E+10
      1427    14260.0  1.18325E+07  1.60057E+10
      1428    14270.0  1.18857E+07  1.61245E+10
      1429    14280.0  1.19802E+07  1.62443E+10
      1430    14290.0  1.20601E+07  1.63649E+10
      1431    14300.0  1.21090E+07  1.64860E+10
      1432    14310.0  1.22394E+07  1.66084E+10
      1433    14320.0  1.23142E+07  1.67316E+10
      1434    14330.0  1.23928E+07  1.68555E+10
      1435    14340.0  1.25000E+07  1.69805E+10
      1436    14350.0  1.25598E+07  1.71061E+10
      1437    14360.0  1.26485E+07  1.72326E+10
      1438    14370.0  1.27619E+07  1.73602E+10
      1439    14380.0  1.28274E+07  1.74885E+10
      1440    14390.0  1.29185E+07  1.76177E+10
      1441    14400.0  1.30589E+07  1.77482E+10
      1442    14410.0  1.31004E+07  1.78792E+10
      1443    14420.0  1.31935E+07  1.80112E+10
      1444    14430.0  1.32831E+07  1.81440E+10
      1445    14440.0  1.33478E+07  1.82775E+10
      1446    14450.0  1.34613E+07  1.84121E+10
      1447    14460.0  1.35909E+07  1.85480E+10
      1448    14470.0  1.36784E+07  1.86848E+10
      1449    14480.0  1.37785E+07  1.88226E+10
      1450    14490.0  1.38669E+07  1.89612E+10
      1451    14500.0  1.39305E+07  1.91006E+10
      1452    14510.0  1.40334E+07  1.92409E+10
      1453    14520.0  1.41280E+07  1.93822E+10
      1454    14530.0  1.42095E+07  1.95243E+10
      1455    14540.0  1.43373E+07  1.96676E+10
      1456    14550.0  1.44583E+07  1.98122E+10
      1457    14560.0  1.45590E+07  1.99578E+10
      1458    14570.0  1.46461E+07  2.01043E+10
      1459    14580.0  1.47514E+07  2.02518E+10
      1460    14590.0  1.48010E+07  2.03998E+10
      1461    14600.0  1.49284E+07  2.05491E+10
      1462    14610.0  1.50406E+07  2.06995E+10
      1463    14620.0  1.51378E+07  2.08509E+10
      1464    14630.0  1.52578E+07  2.10034E+10
      1465    14640.0  1.53854E+07  2.11573E+10
      1466    14650.0  1.54663E+07  2.13120E+10
      1467    14660.0  1.55803E+07  2.14678E+10
      1468    14670.0  1.56737E+07  2.16245E+10
      1469    14680.0  1.57556E+07  2.17821E+10
      1470    14690.0  1.59032E+07  2.19411E+10
      1471    14700.0  1.60125E+07  2.21012E+10
      1472    14710.0  1.61165E+07  2.22624E+10
      1473    14720.0  1.62315E+07  2.24247E+10
      1474    14730.0  1.63237E+07  2.25879E+10
      1475    14740.0  1.64280E+07  2.27522E+10
      1476    14750.0  1.65689E+07  2.29179E+10
      1477    14760.0  1.66821E+07  2.30847E+10
      1478    14770.0  1.67906E+07  2.32526E+10
      1479    14780.0  1.69200E+07  2.34218E+10
      1480    14790.0  1.70167E+07  2.35920E+10
      1481    14800.0  1.71222E+07  2.37632E+10
      1482    14810.0  1.72396E+07  2.39356E+10
      1483    14820.0  1.73433E+07  2.41090E+10
      1484    14830.0  1.74594E+07  2.42836E+10
      1485    14840.0  1.76224E+07  2.44599E+10
      1486    14850.0  1.77658E+07  2.46375E+10
      1487    14860.0  1.78585E+07  2.48161E+10
      1488    14870.0  1.79950E+07  2.49961E+10
      1489    14880.0  1.80826E+07  2.51769E+10
      1490    14890.0  1.81771E+07  2.53586E+10
      1491    14900.0  1.83114E+07  2.55418E+10
      1492    14910.0  1.84643E+07  2.57264E+10
      1493    14920.0  1.85695E+07  2.59121E+10
      1494    14930.0  1.87649E+07  2.60998E+10
      1495    14940.0  1.88750E+07  2.62885E+10
      1496    14950.0  1.89709E+07  2.64782E+10
      1497    14960.0  1.91075E+07  2.66693E+10
      1498    14970.0  1.91878E+07  2.68612E+10
      1499    14980.0  1.93231E+07  2.70544E+10
      1500    14990.0  1.95078E+07  2.72495E+10
      1501        0.0  1.00000E-01  1.00000E+00
      1502      170.3  1.00000E+00  6.30000E+01
      1503      340.7  0.00000E+00  1.49000E+02
      1504      511.0  2.70000E+00  3.10000E+02
      1505      681.4  0.00000E+00  5.79000E+02
      1506      851.7  2.40000E+00  9.34000E+02
      1507     1022.0  2.00000E+00  1.42400E+03
      1508     1192.4  6.50000E+00  2.29600E+03
      1509     1362.7  8.80000E+00  3.41500E+03
      1510     1533.1  1.58000E+01  5.32000E+03
      1511     1703.4  1.54000E+01  7.81200E+03
      1512     1873.7  3.13000E+01  1.14280E+04
      1513     2044.1  5.37000E+01  1.68440E+04
      1514     2214.4  4.44000E+01  2.33070E+04
      1515     2384.8  6.52000E+01  3.26290E+04
      1516     2555.1  6.81000E+01  4.39370E+04
      1517     2725.5  1.18100E+02  6.09880E+04
      1518     2895.8  1.37900E+02  8.26020E+04
      1519     3066.1  1.50000E+02  1.09798E+05
      1520     3236.5  2.11700E+02  1.46710E+05
      1521     3406.8  3.52400E+02  1.95463E+05
      1522     3577.2  3.55300E+02  2.57302E+05
      1523     3747.5  4.71800E+02  3.33964E+05
      1524     3917.8  6.11000E+02  4.32307E+05
      1525     4088.2  8.70600E+02  5.58553E+05
      1526     4258.5  9.71900E+02  7.17549E+05
      1527     4428.9  1.22500E+03  9.15469E+05
      1528     4599.2  1.65900E+03  1.16252E+06
      1529     4769.5  2.09610E+03  1.47452E+06
      1530     4939.9  2.42040E+03  1.86068E+06
      1531     5110.2  3.05000E+03  2.36209E+06
      1532     5280.6  4.00530E+03  2.95261E+06
      1533     5450.9  4.89860E+03  3.68223E+06
      1534     5621.2  5.36870E+03  4.55870E+06
      1535     5791.6  6.82490E+03  5.63120E+06
      1536     5961.9  8.85850E+03  6.95192E+06
      1537     6132.3  1.04048E+04  8.54451E+06
      1538     6302.6  1.14134E+04  1.04588E+07
      1539     6472.9  1.49037E+04  1.27756E+07
      1540     6643.3  1.83016E+04  1.55733E+07
      1541     6813.6  2.13195E+04  1.89132E+07
      1542     6984.0  2.41491E+04  2.28968E+07
      1543     7154.3  2.99555E+04  2.76745E+07
      1544     7324.6  3.74512E+04  3.33799E+07
      1545     7495.0  4.35413E+04  4.01452E+07
      1546     7665.3  4.98985E+04  4.81485E+07
      1547     7835.7  6.03787E+04  5.76519E+07
      1548     8006.0  7.25043E+04  6.89188E+07
      1549     8176.4  8.57277E+04  8.21753E+07
      1550     8346.7  9.86463E+04  9.77072E+07
      1551     8517.0  1.16006E+05  1.16005E+08
      1552     8687.4  1.37992E+05  1.37536E+08
      1553     8857.7  1.60276E+05  1.62708E+08
      1554     9028.1  1.83773E+05  1.92067E+08
      1555     9198.4  2.18865E+05  2.26386E+08
      1556     9368.7  2.54388E+05  2.66446E+08
      1557     9539.1  2.93476E+05  3.12993E+08
      1558     9709.4  3.37828E+05  3.67022E+08
      1559     9879.8  3.97148E+05  4.29733E+08
      1560    10050.1  4.60465E+05  5.07014E+08
      1561    10220.4  5.29800E+05  5.91698E+08
      1562    10390.8  6.17311E+05  6.89549E+08
      1563    10561.1  7.15120E+05  8.02536E+08
      1564    10731.5  8.15459E+05  9.32640E+08
      1565    10901.8  9.36643E+05  1.08222E+09
      1566    11072.1  1.08017E+06  1.25414E+09
      1567    11242.5  1.24845E+06  1.45154E+09
      1568    11412.8  1.41198E+06  1.67765E+09
      1569    11583.2  1.60868E+06  1.93647E+09
      1570    11753.5  1.86164E+06  2.23265E+09
      1571    11923.8  2.13715E+06  2.57093E+09
      1572    12094.2  2.40312E+06  2.95667E+09
      1573    12264.5  2.73731E+06  3.39637E+09
      1574    12434.9  3.13081E+06  3.89731E+09
      1575    12605.2  3.57650E+06  4.46696E+09
      1576    12775.6  4.03592E+06  5.11377E+09
      1577    12945.9  4.56504E+06  5.84771E+09
      1578    13116.2  5.18628E+06  6.68030E+09
      1579    13286.6  5.88776E+06  7.62375E+09
      1580    13456.9  6.64175E+06  8.69101E+09
      1581    13627.3  7.49631E+06  9.89713E+09
      1582    13797.6  8.47988E+06  1.12602E+10
      1583    13967.9  9.57543E+06  1.27987E+10
      1584    14138.3  1.07795E+07  1.45330E+10
      1585    14308.6  1.21090E+07  1.64860E+10
      1586    14479.0  1.36784E+07  1.86848E+10
      1587    14649.3  1.53854E+07  2.11573E+10
      1588    14819.6  1.72396E+07  2.39356E+10
      1589    14990.0  1.93231E+07  2.70544E+10
      1590    15160.3  2.18805E+07  3.07725E+10
      1591    15330.7  2.44716E+07  3.47207E+10
      1592    15501.0  2.73985E+07  3.91425E+10
      1593    15671.3  3.07019E+07  4.40908E+10
      1594    15841.7  3.42805E+07  4.96241E+10
      1595    16012.0  3.82579E+07  5.58073E+10
      1596    16182.4  4.27181E+07  6.27106E+10
      1597    16352.7  4.77058E+07  7.04130E+10
      1598    16523.0  5.31831E+07  7.90015E+10
      1599    16693.4  5.91126E+07  8.85695E+10
      1600    16863.7  6.57974E+07  9.92229E+10
      1601    17034.1  7.33080E+07  1.11077E+11
      1602    17204.4  8.15047E+07  1.24256E+11
      1603    17374.7  9.04005E+07  1.38897E+11
      1604    17545.1  1.00337E+08  1.55156E+11
      1605    17715.4  1.11389E+08  1.73198E+11
      1606    17885.8  1.23542E+08  1.93206E+11
      1607    18056.1  1.36777E+08  2.15379E+11
      1608    18226.5  1.51425E+08  2.39935E+11
      1609    18396.8  1.67629E+08  2.67117E+11
      1610    18567.1  1.85382E+08  2.97187E+11
      1611    18737.5  2.04847E+08  3.30428E+11
      1612    18907.8  2.26270E+08  3.67153E+11
      1613    19078.2  2.49801E+08  4.07705E+11
      1614    19248.5  2.75683E+08  4.52461E+11
      1615    19418.8  3.03852E+08  5.01824E+11
      1616    19589.2  3.34773E+08  5.56237E+11
      1617    19759.5  3.68960E+08  6.16185E+11
      1618    19929.9  4.06247E+08  6.82195E+11
      1619    20100.2  4.49294E+08  7.59332E+11
      1620    20270.5  4.94049E+08  8.39682E+11
      1621    20440.9  5.42883E+08  9.28010E+11
      1622    20611.2  5.96351E+08  1.02506E+12
      1623    20781.6  6.54842E+08  1.13163E+12
      1624    20951.9  7.18659E+08  1.24861E+12
      1625    21122.2  7.88032E+08  1.37694E+12
      1626    21292.6  8.63768E+08  1.51765E+12
      1627    21462.9  9.46665E+08  1.67187E+12
      1628    21633.3  1.03694E+09  1.84080E+12
      1629    21803.6  1.13496E+09  2.02576E+12
      1630    21973.9  1.24152E+09  2.22817E+12
      1631    22144.3  1.35770E+09  2.44957E+12
      1632    22314.6  1.48448E+09  2.69165E+12
      1633    22485.0  1.62204E+09  2.95621E+12
      1634    22655.3  1.77109E+09  3.24518E+12
      1635    22825.7  1.93331E+09  3.56070E+12
      1636    22996.0  2.10982E+09  3.90505E+12
      1637    23166.3  2.30099E+09  4.28069E+12
      1638    23336.7  2.50841E+09  4.69028E+12
      1639    23507.0  2.73340E+09  5.13670E+12
      1640    23677.4  2.97755E+09  5.62307E+12
      1641    23847.7  3.24186E+09  6.15272E+12
      1642    24018.0  3.52792E+09  6.72928E+12
      1643    24188.4  3.83806E+09  7.35662E+12
      1644    24358.7  4.17429E+09  8.03895E+12
      1645    24529.1  4.53713E+09  8.78078E+12
      1646    24699.4  4.92943E+09  9.58697E+12
      1647    24869.7  5.35384E+09  1.04628E+13
      1648    25040.1  5.84116E+09  1.14722E+13
      1649    25210.4  6.33946E+09  1.25095E+13
      1650    25380.8  6.87743E+09  1.36351E+13
      1651    25551.1  7.45806E+09  1.48559E+13
      1652    25721.4  8.08457E+09  1.61795E+13
      1653    25891.8  8.76055E+09  1.76140E+13
      1654    26062.1  9.49021E+09  1.91682E+13
      1655    26232.5  1.02764E+10  2.08514E+13
      1656    26402.8  1.11231E+10  2.26736E+13
      1657    26573.1  1.20352E+10  2.46457E+13
      1658    26743.5  1.30183E+10  2.67792E+13
      1659    26913.8  1.40773E+10  2.90864E+13
      1660    27084.2  1.52161E+10  3.15808E+13
      1661    27254.5  1.64403E+10  3.42764E+13
      1662    27424.8  1.77585E+10  3.71886E+13
      1663    27595.2  1.91758E+10  4.03337E+13
      1664    27765.5  2.06990E+10  4.37291E+13
      1665    27935.9  2.23353E+10  4.73935E+13
      1666    28106.2  2.40937E+10  5.13470E+13
      1667    28276.6  2.59819E+10  5.56109E+13
      1668    28446.9  2.80087E+10  6.02082E+13
      1669    28617.2  3.01836E+10  6.51633E+13
      1670    28787.6  3.25181E+10  7.05023E+13
      1671    28957.9  3.50217E+10  7.62532E+13
      1672    29128.3  3.77054E+10  8.24457E+13
      1673    29298.6  4.05822E+10  8.91118E+13
      1674    29468.9  4.36662E+10  9.62854E+13
      1675    29639.3  4.69706E+10  1.04003E+14
      1676    29809.6  5.05092E+10  1.12303E+14
      1677    29980.0  5.42962E+10  1.21226E+14
      1678    30150.3  5.85996E+10  1.31404E+14
      1679    30320.6  6.29558E+10  1.41754E+14
      1680    30491.0  6.76177E+10  1.52872E+14
      1681    30661.3  7.26038E+10  1.64810E+14
      1682    30831.7  7.79343E+10  1.77628E+14
      1683    31002.0  8.36309E+10  1.91384E+14
      1684    31172.3  8.97203E+10  2.06144E+14
      1685    31342.7  9.62277E+10  2.21976E+14
      1686    31513.0  1.03177E+11  2.38953E+14
      1687    31683.4  1.10596E+11  2.57154E+14
      1688    31853.7  1.18517E+11  2.76661E+14
      1689    32024.0  1.26972E+11  2.97562E+14
      1690    32194.4  1.35995E+11  3.19952E+14
      1691    32364.7  1.45618E+11  3.43928E+14
      1692    32535.1  1.55881E+11  3.69597E+14
      1693    32705.4  1.66823E+11  3.97072E+14
      1694    32875.8  1.78488E+11  4.26471E+14
      1695    33046.1  1.90918E+11  4.57922E+14
      1696    33216.4  2.04163E+11  4.91558E+14
      1697    33386.8  2.18271E+11  5.27523E+14
      1698    33557.1  2.33295E+11  5.65968E+14
      1699    33727.5  2.49288E+11  6.07053E+14
      1700    33897.8  2.66314E+11  6.50950E+14
      1701    34068.1  2.84433E+11  6.97838E+14
      1702    34238.5  3.03711E+11  7.47910E+14
      1703    34408.8  3.24214E+11  8.01368E+14
      1704    34579.2  3.46018E+11  8.58428E+14
      1705    34749.5  3.69201E+11  9.19318E+14
      1706    34919.8  3.93849E+11  9.84279E+14
      1707    35090.2  4.21629E+11  1.05778E+15
      1708    35260.5  4.49557E+11  1.13195E+15
      1709    35430.9  4.79218E+11  1.21102E+15
      1710    35601.2  5.10721E+11  1.29530E+15
      1711    35771.5  5.44173E+11  1.38510E+15
      1712    35941.9  5.79687E+11  1.48078E+15
      1713    36112.2  6.17375E+11  1.58268E+15
      1714    36282.6  6.57367E+11  1.69120E+15
      1715    36452.9  6.99793E+11  1.80674E+15
      1716    36623.2  7.44799E+11  1.92972E+15
      1717    36793.6  7.92523E+11  2.06059E+15
      1718    36963.9  8.43121E+11  2.19983E+15
      1719    37134.3  8.96753E+11  2.34794E+15
      1720    37304.6  9.53595E+11  2.50546E+15
      1721    37474.9  1.01383E+12  2.67294E+15
      1722    37645.3  1.07764E+12  2.85098E+15
      1723    37815.6  1.14522E+12  3.04021E+15
      1724    37986.0  1.21679E+12  3.24128E+15
      1725    38156.3  1.29256E+12  3.45489E+15
      1726    38326.7  1.37277E+12  3.68178E+15
      1727    38497.0  1.45767E+12  3.92273E+15
      1728    38667.3  1.54750E+12  4.17854E+15
      1729    38837.7  1.64253E+12  4.45010E+15
      1730    39008.0  1.74305E+12  4.73829E+15
      1731    39178.4  1.84936E+12  5.04410E+15
      1732    39348.7  1.96177E+12  5.36852E+15
      1733    39519.0  2.08060E+12  5.71262E+15
      1734    39689.4  2.20620E+12  6.07753E+15
      1735    39859.7  2.33893E+12  6.46442E+15
      1736    40030.1  2.48766E+12  6.89943E+15
      1737    40200.4  2.63629E+12  7.33560E+15
      1738    40370.7  2.79328E+12  7.79777E+15
      1739    40541.1  2.95905E+12  8.28742E+15
      1740    40711.4  3.13408E+12  8.80608E+15
      1741    40881.8  3.31884E+12  9.35536E+15
      1742    41052.1  3.51385E+12  9.93697E+15
      1743    41222.4  3.71964E+12  1.05527E+16
      1744    41392.8  3.93677E+12  1.12044E+16
      1745    41563.1  4.16581E+12  1.18941E+16
      1746    41733.5  4.40739E+12  1.26238E+16
      1747    41903.8  4.66215E+12  1.33958E+16
      1748    42074.1  4.93078E+12  1.42124E+16
      1749    42244.5  5.21395E+12  1.50759E+16
      1750    42414.8  5.51243E+12  1.59889E+16
      1751    42585.2  5.82697E+12  1.69541E+16
      1752    42755.5  6.15841E+12  1.79743E+16
      1753    42925.9  6.50757E+12  1.90524E+16
      1754    43096.2  6.87538E+12  2.01915E+16
      1755    43266.5  7.26273E+12  2.13949E+16
      1756    43436.9  7.67062E+12  2.26659E+16
      1757    43607.2  8.10005E+12  2.40083E+16
      1758    43777.6  8.55211E+12  2.54257E+16
      1759    43947.9  9.02791E+12  2.69220E+16
      1760    44118.2  9.52862E+12  2.85014E+16
      1761    44288.6  1.00554E+13  3.01683E+16
      1762    44458.9  1.06097E+13  3.19273E+16
      1763    44629.3  1.11927E+13  3.37830E+16
      1764    44799.6  1.18058E+13  3.57405E+16
      1765    44969.9  1.24505E+13  3.78050E+16
      1766    45140.3  1.31694E+13  4.01138E+16
      1767    45310.6  1.38840E+13  4.24164E+16
      1768    45481.0  1.46352E+13  4.48438E+16
      1769    45651.3  1.54246E+13  4.74023E+16
      1770    45821.6  1.62542E+13  5.00985E+16
      1771    45992.0  1.71256E+13  5.29396E+16
      1772    46162.3  1.80411E+13  5.59327E+16
      1773    46332.7  1.90026E+13  5.90855E+16
      1774    46503.0  2.00124E+13  6.24062E+16
      1775    46673.3  2.10726E+13  6.59030E+16
      1776    46843.7  2.21857E+13  6.95847E+16
      1777    47014.0  2.33541E+13  7.34606E+16
      1778    47184.4  2.45805E+13  7.75404E+16
      1779    47354.7  2.58674E+13  8.18340E+16
      1780    47525.1  2.72178E+13  8.63521E+16
      1781    47695.4  2.86345E+13  9.11057E+16
      1782    47865.7  3.01207E+13  9.61063E+16
      1783    48036.1  3.16794E+13  1.01366E+17
      1784    48206.4  3.33140E+13  1.06898E+17
      1785    48376.8  3.50281E+13  1.12714E+17
      1786    48547.1  3.68251E+13  1.18829E+17
      1787    48717.4  3.87089E+13  1.25258E+17
      1788    48887.8  4.06835E+13  1.32015E+17
      1789    49058.1  4.27528E+13  1.39116E+17
      1790    49228.5  4.49212E+13  1.46578E+17
      1791    49398.8  4.71932E+13  1.54417E+17
      1792    49569.1  4.95733E+13  1.62653E+17
      1793    49739.5  5.20664E+13  1.71303E+17
      1794    49909.8  5.46775E+13  1.80387E+17
      1795    50080.2  5.75767E+13  1.90503E+17
      1796    50250.5  6.04477E+13  2.00547E+17
      1797    50420.8  6.34533E+13  2.11092E+17
      1798    50591.2  6.65996E+13  2.22160E+17
      1799    50761.5  6.98928E+13  2.33776E+17
      1800    50931.9  7.33393E+13  2.45966E+17
      1801    51102.2  7.69458E+13  2.58756E+17
      1802    51272.5  8.07193E+13  2.72174E+17
      1803    51442.9  8.46670E+13  2.86249E+17
      1804    51613.2  8.87964E+13  3.01012E+17
      1805    51783.6  9.31154E+13  3.16493E+17
      1806    51953.9  9.76323E+13  3.32726E+17
      1807    52124.2  1.02355E+14  3.49746E+17
      1808    52294.6  1.07294E+14  3.67588E+17
      1809    52464.9  1.12456E+14  3.86289E+17
      1810    52635.3  1.17853E+14  4.05889E+17
      1811    52805.6  1.23493E+14  4.26428E+17
      1812    52976.0  1.29387E+14  4.47948E+17
      1813    53146.3  1.35547E+14  4.70495E+17
      1814    53316.6  1.41982E+14  4.94113E+17
      1815    53487.0  1.48705E+14  5.18851E+17
      1816    53657.3  1.55728E+14  5.44758E+17
      1817    53827.7  1.63063E+14  5.71888E+17
      1818    53998.0  1.70723E+14  6.00293E+17
      1819    54168.3  1.78723E+14  6.30031E+17
      1820    54338.7  1.87075E+14  6.61161E+17
      1821    54509.0  1.95794E+14  6.93743E+17
      1822    54679.4  2.04897E+14  7.27842E+17
      1823    54849.7  2.14398E+14  7.63524E+17
      1824    55020.0  2.24910E+14  8.03107E+17
      1825    55190.4  2.35284E+14  8.42269E+17
      1826    55360.7  2.46108E+14  8.83235E+17
      1827    55531.1  2.57401E+14  9.26083E+17
      1828    55701.4  2.69182E+14  9.70894E+17
      1829    55871.7  2.81470E+14  1.01775E+18
      1830    56042.1  2.94287E+14  1.06675E+18
      1831    56212.4  3.07654E+14  1.11797E+18
      1832    56382.8  3.21592E+14  1.17152E+18
      1833    56553.1  3.36126E+14  1.22749E+18
      1834    56723.4  3.51277E+14  1.28599E+18
      1835    56893.8  3.67072E+14  1.34712E+18
      1836    57064.1  3.83535E+14  1.41099E+18
      1837    57234.5  4.00694E+14  1.47773E+18
      1838    57404.8  4.18576E+14  1.54744E+18
      1839    57575.2  4.37210E+14  1.62027E+18
      1840    57745.5  4.56625E+14  1.69633E+18
      1841    57915.8  4.76851E+14  1.77576E+18
      1842    58086.2  4.97922E+14  1.85871E+18
      1843    58256.5  5.19869E+14  1.94532E+18
      1844    58426.9  5.42728E+14  2.03574E+18
      1845    58597.2  5.66533E+14  2.13014E+18
      1846    58767.5  5.91321E+14  2.22866E+18
      1847    58937.9  6.17131E+14  2.33150E+18
      1848    59108.2  6.44002E+14  2.43881E+18
      1849    59278.6  6.71976E+14  2.55079E+18
      1850    59448.9  7.01093E+14  2.66763E+18
      1851    59619.2  7.31399E+14  2.78953E+18
      1852    59789.6  7.62939E+14  2.91669E+18
      1853    59959.9  7.95759E+14  3.04932E+18
      1854    60130.3  8.31961E+14  3.19598E+18
      1855    60300.6  8.67575E+14  3.34060E+18
      1856    60470.9  9.04625E+14  3.49140E+18
      1857    60641.3  9.43165E+14  3.64863E+18
      1858    60811.6  9.83252E+14  3.81255E+18
      1859    60982.0  1.02494E+15  3.98344E+18
      1860    61152.3  1.06830E+15  4.16156E+18
      1861    61322.6  1.11338E+15  4.34720E+18
      1862    61493.0  1.16026E+15  4.54067E+18
      1863    61663.3  1.20900E+15  4.74227E+18
      1864    61833.7  1.25966E+15  4.95233E+18
      1865    62004.0  1.31232E+15  5.17119E+18
      1866    62174.3  1.36706E+15  5.39918E+18
      1867    62344.7  1.42395E+15  5.63667E+18
      1868    62515.0  1.48307E+15  5.88403E+18
      1869    62685.4  1.54450E+15  6.14165E+18
      1870    62855.7  1.60833E+15  6.40992E+18
      1871    63026.1  1.67464E+15  6.68927E+18
      1872    63196.4  1.74353E+15  6.98012E+18
      1873    63366.7  1.81509E+15  7.28292E+18
      1874    63537.1  1.88941E+15  7.59814E+18
      1875    63707.4  1.96660E+15  7.92624E+18
      1876    63877.8  2.04676E+15  8.26774E+18
      1877    64048.1  2.13000E+15  8.62313E+18
      1878    64218.4  2.21643E+15  8.99297E+18
      1879    64388.8  2.30617E+15  9.37779E+18
      1880    64559.1  2.39932E+15  9.77817E+18
      1881    64729.5  2.49602E+15  1.01947E+19
      1882    64899.8  2.59640E+15  1.06280E+19
      1883    65070.1  2.70682E+15  1.11058E+19
      1884    65240.5  2.81517E+15  1.15756E+19
      1885    65410.8  2.92760E+15  1.20643E+19
      1886    65581.2  3.04427E+15  1.25724E+19
      1887    65751.5  3.16531E+15  1.31008E+19
      1888    65921.8  3.29089E+15  1.36501E+19
      1889    66092.2  3.42117E+15  1.42212E+19
      1890    66262.5  3.55630E+15  1.48149E+19
      1891    66432.9  3.69646E+15  1.54320E+19
      1892    66603.2  3.84183E+15  1.60734E+19
      1893    66773.5  3.99258E+15  1.67400E+19
      1894    66943.9  4.14890E+15  1.74328E+19
      1895    67114.2  4.31099E+15  1.81526E+19
      1896    67284.6  4.47905E+15  1.89005E+19
      1897    67454.9  4.65328E+15  1.96775E+19
      1898    67625.3  4.83390E+15  2.04847E+19
      1899    67795.6  5.02112E+15  2.13233E+19
      1900    67965.9  5.21517E+15  2.21942E+19
      1901    68136.3  5.41629E+15  2.30988E+19
      1902    68306.6  5.62472E+15  2.40382E+19
      1903    68477.0  5.84070E+15  2.50137E+19
      1904    68647.3  6.06450E+15  2.60267E+19
      1905    68817.6  6.29638E+15  2.70784E+19
      1906    68988.0  6.53661E+15  2.81703E+19
      1907    69158.3  6.78548E+15  2.93038E+19
      1908    69328.7  7.04328E+15  3.04804E+19
      1909    69499.0  7.31030E+15  3.17017E+19
      1910    69669.3  7.58687E+15  3.29692E+19
      1911    69839.7  7.87329E+15  3.42846E+19
      1912    70010.0  8.18767E+15  3.57315E+19
      1913    70180.4  8.49544E+15  3.71509E+19
      1914    70350.7  8.81411E+15  3.86237E+19
      1915    70521.0  9.14405E+15  4.01516E+19
      1916    70691.4  9.48562E+15  4.17367E+19
      1917    70861.7  9.83922E+15  4.33809E+19
      1918    71032.1  1.02052E+16  4.50863E+19
      1919    71202.4  1.05841E+16  4.68551E+19
      1920    71372.7  1.09762E+16  4.86895E+19
      1921    71543.1  1.13820E+16  5.05918E+19
      1922    71713.4  1.18019E+16  5.25643E+19
      1923    71883.8  1.22364E+16  5.46095E+19
      1924    72054.1  1.26860E+16  5.67299E+19
      1925    72224.4  1.31512E+16  5.89282E+19
      1926    72394.8  1.36324E+16  6.12070E+19
      1927    72565.1  1.41302E+16  6.35691E+19
      1928    72735.5  1.46452E+16  6.60173E+19
      1929    72905.8  1.51779E+16  6.85547E+19
      1930    73076.2  1.57288E+16  7.11842E+19
      1931    73246.5  1.62985E+16  7.39091E+19
      1932    73416.8  1.68877E+16  7.67326E+19
      1933    73587.2  1.74970E+16  7.96581E+19
      1934    73757.5  1.81270E+16  8.26890E+19
      1935    73927.9  1.87783E+16  8.58289E+19
      1936    74098.2  1.94517E+16  8.90815E+19
      1937    74268.5  2.01479E+16  9.24506E+19
      1938    74438.9  2.08676E+16  9.59402E+19
      1939    74609.2  2.16114E+16  9.95543E+19
      1940    74779.6  2.23803E+16  1.03297E+20
      1941    74949.9  2.31750E+16  1.07173E+20
      1942    75120.2  2.40453E+16  1.11427E+20
      1943    75290.6  2.48956E+16  1.15590E+20
      1944    75460.9  2.57743E+16  1.19901E+20
      1945    75631.3  2.66822E+16  1.24364E+20
      1946    75801.6  2.76202E+16  1.28984E+20
      1947    75971.9  2.85892E+16  1.33766E+20
      1948    76142.3  2.95904E+16  1.38716E+20
      1949    76312.6  3.06245E+16  1.43839E+20
      1950    76483.0  3.16927E+16  1.49141E+20
      1951    76653.3  3.27961E+16  1.54628E+20
      1952    76823.6  3.39356E+16  1.60305E+20
      1953    76994.0  3.51125E+16  1.66179E+20
      1954    77164.3  3.63278E+16  1.72257E+20
      1955    77334.7  3.75828E+16  1.78545E+20
      1956    77505.0  3.88786E+16  1.85051E+20
      1957    77675.4  4.02165E+16  1.91780E+20
      1958    77845.7  4.15979E+16  1.98740E+20
      1959    78016.0  4.30239E+16  2.05940E+20
      1960    78186.4  4.44960E+16  2.13385E+20
      1961    78356.7  4.60156E+16  2.21086E+20
      1962    78527.1  4.75842E+16  2.29049E+20
      1963    78697.4  4.92031E+16  2.37283E+20
      1964    78867.7  5.08739E+16  2.45797E+20
      1965    79038.1  5.25982E+16  2.54600E+20
      1966    79208.4  5.43775E+16  2.63701E+20
      1967    79378.8  5.62136E+16  2.73110E+20
      1968    79549.1  5.81082E+16  2.82836E+20
      1969    79719.4  6.00629E+16  2.92890E+20
      1970    79889.8  6.20796E+16  3.03281E+20
      1971    80060.1  6.42845E+16  3.14664E+20
      1972    80230.5  6.64347E+16  3.25784E+20
      1973    80400.8  6.86526E+16  3.37277E+20
      1974    80571.1  7.09404E+16  3.49153E+20
      1975    80741.5  7.33000E+16  3.61424E+20
      1976    80911.8  7.57336E+16  3.74103E+20
      1977    81082.2  7.82433E+16  3.87203E+20
      1978    81252.5  8.08314E+16  4.00736E+20
      1979    81422.8  8.35002E+16  4.14716E+20
      1980    81593.2  8.62521E+16  4.29158E+20
      1981    81763.5  8.90895E+16  4.44075E+20
      1982    81933.9  9.20148E+16  4.59482E+20
      1983    82104.2  9.50307E+16  4.75394E+20
      1984    82274.5  9.81397E+16  4.91828E+20
      1985    82444.9  1.01345E+17  5.08799E+20
      1986    82615.2  1.04648E+17  5.26323E+20
      1987    82785.6  1.08053E+17  5.44419E+20
      1988    82955.9  1.11563E+17  5.63102E+20
      1989    83126.3  1.15180E+17  5.82392E+20
      1990    83296.6  1.18907E+17  6.02306E+20
      1991    83466.9  1.22749E+17  6.22865E+20
      1992    83637.3  1.26707E+17  6.44086E+20
      1993    83807.6  1.30785E+17  6.65992E+20
      1994    83978.0  1.34987E+17  6.88602E+20
      1995    84148.3  1.39317E+17  7.11937E+20
      1996    84318.6  1.43777E+17  7.36021E+20
      1997    84489.0  1.48372E+17  7.60875E+20
      1998    84659.3  1.53106E+17  7.86522E+20
      1999    84829.7  1.57982E+17  8.12987E+20
      2000    85000.0  1.63304E+17  8.41927E+20
