**************INPUT DATA SUMMARY**************
%%%%%%%%%%%%%%%%%%%%%%%%%%%%%%%%%%%%%%%%%%%%%%%%%%%%%%%%%%%%%%%%%%%%%%%%%%%%%%

                                        John R. Barker
                DenSum-2019             University of Michigan
                                        Ann Arbor, MI 48109-2143
                Apr 2019                jrbarker@umich.edu
                                        (734) 763 6239

              http://clasp-research.engin.umich.edu/multiwell/

%%%%%%%%%%%%%%%%%%%%%%%%%%%%%%%%%%%%%%%%%%%%%%%%%%%%%%%%%%%%%%%%%%%%%%%%%%%%%%

        Suggested Literature Citations:

    a) J.R. Barker, T.L. Nguyen, J.F. Stanton, C. Aieta, M. Ceotto,
       F. Gabas, T.J.D. Kumar, C.G.L.Li, L.L.Lohr, A. Maranzana,
       N.F. Ortiz, J.M. Preses, J.M. Simmie, J.A. Sonk, and P.J. Stimac; 
       MultiWell-2019    Software Suite; University of Michigan, 
       Ann Arbor, Michigan, USA, Apr 2019; 
       http://clasp-research.engin.umich.edu/multiwell/.

    b) J.R. Barker, Int. J. Chem. Kinetics, 33, 232-45 (2001)

%%%%%%%%%%%%%%%%%%%%%%%%%%%%%%%%%%%%%%%%%%%%%%%%%%%%%%%%%%%%%%%%%%%%%%%%%%%%%%


....................................................
          2019/05/21   08:45:11.743   (Local Time)
          year/mm/dd   hr:mi:second
                 CPU :        0.002 s (  0.000 hr)
....................................................


Degrees of Freedom

  1  Vibrator: Fund=  3416.90  Harm=  3598.70  Anh(cm-1)=  -90.90  g=  1
  2  Vibrator: Fund=  1367.50  Harm=  1387.50  Anh(cm-1)=  -10.00  g=  1
  3  Vibrator: Fund=   855.00  Harm=   875.00  Anh(cm-1)=  -10.00  g=  1
  4  General Hind.Rot:  Vhr_Type = VHRD2; Bhr/Ihr_Type = BHRD1
     Vhr:  Symm. =  1  Phase (rad.) =  0.0000  Coeff. (cm-1) =   645.1000  1036.9700   657.5300    50.8900     2.5240
     Bhr:  Symm. =  1  Phase (rad.) =  0.0000  Coeff. (cm-1) =    39.3754
  5  Vibrator: Fund=  3430.30  Harm=  3610.70  Anh(cm-1)=  -90.20  g=  1
  6  Vibrator: Fund=  1260.00  Harm=  1266.00  Anh(cm-1)=   -3.00  g=  1
  7  Symm-Top  2D-Moment =   19.70 amua, B2 =  0.8556 cm-1  ;  1D-Moment =    1.67 amua, B1 = 10.0697 cm-1  ;  Symm. No. = 1
  8  Quan.Rot  AmuAng^2 =   16.86  Symm =  1.   dim = 1  B =  1.0000 cm-1
  9  Vibrator: Fund=  1002.00  Harm=  1000.00  Anh(cm-1)=    1.00  g=  1
 10  P-in-Box  Freq(0-1)=    3.00  Freq.Param.=    1.00  g = 1
**************INPUT DATA SUMMARY**************
 H2O2
H2O2 [Dorofeeva et al. J. Phys. Chem. Ref. Data 32
        5.0       3000    80000.0       4000        1.0
       No.    E-EJmin     Density     Sum   [EJmin =    0.0 cm-1; E at TOP of energy grains]
         1        0.0  2.40000E+00  1.20000E+01
         2        5.0  7.00000E+00  4.70000E+01
         3       10.0  2.08000E+01  1.51000E+02
         4       15.0  4.56000E+01  3.79000E+02
         5       20.0  7.78000E+01  7.68000E+02
         6       25.0  1.33200E+02  1.43400E+03
         7       30.0  1.71600E+02  2.29200E+03
         8       35.0  2.40800E+02  3.49600E+03
         9       40.0  2.87400E+02  4.93300E+03
        10       45.0  3.46600E+02  6.66600E+03
        11       50.0  4.38000E+02  8.85600E+03
        12       55.0  4.75200E+02  1.12320E+04
        13       60.0  6.17800E+02  1.43210E+04
        14       65.0  6.32200E+02  1.74820E+04
        15       70.0  7.76400E+02  2.13640E+04
        16       75.0  8.27600E+02  2.55020E+04
        17       80.0  9.05000E+02  3.00270E+04
        18       85.0  1.05640E+03  3.53090E+04
        19       90.0  1.06300E+03  4.06240E+04
        20       95.0  1.23880E+03  4.68180E+04
        21      100.0  1.27460E+03  5.31910E+04
        22      105.0  1.39880E+03  6.01850E+04
        23      110.0  1.52520E+03  6.78110E+04
        24      115.0  1.60660E+03  7.58440E+04
        25      120.0  1.79720E+03  8.48300E+04
        26      125.0  1.91380E+03  9.43990E+04
        27      130.0  1.99720E+03  1.04385E+05
        28      135.0  2.29160E+03  1.15843E+05
        29      140.0  2.16600E+03  1.26673E+05
        30      145.0  2.50680E+03  1.39207E+05
        31      150.0  2.45600E+03  1.51487E+05
        32      155.0  2.65780E+03  1.64776E+05
        33      160.0  2.77940E+03  1.78673E+05
        34      165.0  2.85800E+03  1.92963E+05
        35      170.0  3.16300E+03  2.08778E+05
        36      175.0  3.03820E+03  2.23969E+05
        37      180.0  3.54280E+03  2.41683E+05
        38      185.0  3.40600E+03  2.58713E+05
        39      190.0  3.70440E+03  2.77235E+05
        40      195.0  3.81260E+03  2.96298E+05
        41      200.0  4.01080E+03  3.16352E+05
        42      205.0  4.13320E+03  3.37018E+05
        43      210.0  4.32200E+03  3.58628E+05
        44      215.0  4.47460E+03  3.81001E+05
        45      220.0  4.69140E+03  4.04458E+05
        46      225.0  4.67820E+03  4.27849E+05
        47      230.0  5.26160E+03  4.54157E+05
        48      235.0  4.89940E+03  4.78654E+05
        49      240.0  5.34580E+03  5.05383E+05
        50      245.0  5.51900E+03  5.32978E+05
        51      250.0  5.52880E+03  5.60622E+05
        52      255.0  6.06360E+03  5.90940E+05
        53      260.0  5.71180E+03  6.19499E+05
        54      265.0  6.49220E+03  6.51960E+05
        55      270.0  5.83520E+03  6.81136E+05
        56      275.0  7.03100E+03  7.16291E+05
        57      280.0  6.76060E+03  7.50094E+05
        58      285.0  6.93740E+03  7.84781E+05
        59      290.0  7.50000E+03  8.22281E+05
        60      295.0  7.19160E+03  8.58239E+05
        61      300.0  7.77320E+03  8.97105E+05
        62      305.0  8.06240E+03  9.37417E+05
        63      310.0  7.98820E+03  9.77358E+05
        64      315.0  8.78980E+03  1.02131E+06
        65      320.0  8.39200E+03  1.06327E+06
        66      325.0  9.13400E+03  1.10894E+06
        67      330.0  9.25160E+03  1.15520E+06
        68      335.0  8.75500E+03  1.19897E+06
        69      340.0  1.03766E+04  1.25085E+06
        70      345.0  9.27380E+03  1.29722E+06
        71      350.0  1.06846E+04  1.35064E+06
        72      355.0  1.00576E+04  1.40093E+06
        73      360.0  1.06236E+04  1.45405E+06
        74      365.0  1.06992E+04  1.50755E+06
        75      370.0  1.12170E+04  1.56363E+06
        76      375.0  1.17394E+04  1.62233E+06
        77      380.0  1.14142E+04  1.67940E+06
        78      385.0  1.24576E+04  1.74169E+06
        79      390.0  1.20974E+04  1.80218E+06
        80      395.0  1.32758E+04  1.86855E+06
        81      400.0  1.26366E+04  1.93174E+06
        82      405.0  1.33644E+04  1.99856E+06
        83      410.0  1.36852E+04  2.06698E+06
        84      415.0  1.36360E+04  2.13516E+06
        85      420.0  1.51112E+04  2.21072E+06
        86      425.0  1.48156E+04  2.28480E+06
        87      430.0  1.43514E+04  2.35656E+06
        88      435.0  1.61202E+04  2.43716E+06
        89      440.0  1.47916E+04  2.51112E+06
        90      445.0  1.70740E+04  2.59648E+06
        91      450.0  1.64810E+04  2.67889E+06
        92      455.0  1.67874E+04  2.76283E+06
        93      460.0  1.79906E+04  2.85278E+06
        94      465.0  1.63784E+04  2.93467E+06
        95      470.0  1.88320E+04  3.02883E+06
        96      475.0  1.79306E+04  3.11848E+06
        97      480.0  1.84450E+04  3.21071E+06
        98      485.0  1.96414E+04  3.30892E+06
        99      490.0  1.92020E+04  3.40493E+06
       100      495.0  1.99390E+04  3.50462E+06
       101      500.0  2.04990E+04  3.60712E+06
       102      505.0  2.07598E+04  3.71092E+06
       103      510.0  2.12664E+04  3.81725E+06
       104      515.0  2.09238E+04  3.92187E+06
       105      520.0  2.22166E+04  4.03295E+06
       106      525.0  2.15364E+04  4.14063E+06
       107      530.0  2.38324E+04  4.25979E+06
       108      535.0  2.25386E+04  4.37249E+06
       109      540.0  2.48036E+04  4.49650E+06
       110      545.0  2.29606E+04  4.61131E+06
       111      550.0  2.42968E+04  4.73279E+06
       112      555.0  2.55806E+04  4.86070E+06
       113      560.0  2.42902E+04  4.98215E+06
       114      565.0  2.74552E+04  5.11942E+06
       115      570.0  2.59248E+04  5.24905E+06
       116      575.0  2.71346E+04  5.38472E+06
       117      580.0  2.70508E+04  5.51997E+06
       118      585.0  2.71708E+04  5.65583E+06
       119      590.0  2.82004E+04  5.79683E+06
       120      595.0  2.91342E+04  5.94250E+06
       121      600.0  2.86458E+04  6.08573E+06
       122      605.0  3.08398E+04  6.23993E+06
       123      610.0  2.82628E+04  6.38124E+06
       124      615.0  3.23420E+04  6.54295E+06
       125      620.0  3.03226E+04  6.69456E+06
       126      625.0  3.18702E+04  6.85392E+06
       127      630.0  3.19740E+04  7.01379E+06
       128      635.0  3.21420E+04  7.17450E+06
       129      640.0  3.42202E+04  7.34560E+06
       130      645.0  3.35886E+04  7.51354E+06
       131      650.0  3.55202E+04  7.69114E+06
       132      655.0  3.25202E+04  7.85374E+06
       133      660.0  3.58100E+04  8.03279E+06
       134      665.0  3.60632E+04  8.21311E+06
       135      670.0  3.74162E+04  8.40019E+06
       136      675.0  3.78884E+04  8.58963E+06
       137      680.0  3.72696E+04  8.77598E+06
       138      685.0  3.74858E+04  8.96341E+06
       139      690.0  3.82202E+04  9.15451E+06
       140      695.0  3.94456E+04  9.35174E+06
       141      700.0  4.10656E+04  9.55706E+06
       142      705.0  3.94668E+04  9.75440E+06
       143      710.0  4.27372E+04  9.96808E+06
       144      715.0  4.15820E+04  1.01760E+07
       145      720.0  4.15202E+04  1.03836E+07
       146      725.0  4.27678E+04  1.05974E+07
       147      730.0  4.29276E+04  1.08121E+07
       148      735.0  4.48212E+04  1.10362E+07
       149      740.0  4.46586E+04  1.12595E+07
       150      745.0  4.63928E+04  1.14914E+07
       151      750.0  4.48212E+04  1.17155E+07
       152      755.0  4.70176E+04  1.19506E+07
       153      760.0  4.72316E+04  1.21868E+07
       154      765.0  4.79542E+04  1.24266E+07
       155      770.0  4.83244E+04  1.26682E+07
       156      775.0  4.80550E+04  1.29085E+07
       157      780.0  5.11080E+04  1.31640E+07
       158      785.0  5.11038E+04  1.34195E+07
       159      790.0  5.05968E+04  1.36725E+07
       160      795.0  5.20470E+04  1.39327E+07
       161      800.0  5.01536E+04  1.41835E+07
       162      805.0  5.40478E+04  1.44537E+07
       163      810.0  5.42130E+04  1.47248E+07
       164      815.0  5.55412E+04  1.50025E+07
       165      820.0  5.68318E+04  1.52867E+07
       166      825.0  5.34714E+04  1.55540E+07
       167      830.0  5.77732E+04  1.58429E+07
       168      835.0  5.58256E+04  1.61220E+07
       169      840.0  5.72974E+04  1.64085E+07
       170      845.0  5.98770E+04  1.67079E+07
       171      850.0  5.94974E+04  1.70054E+07
       172      855.0  6.10570E+04  1.73107E+07
       173      860.0  6.16818E+04  1.76191E+07
       174      865.0  6.16466E+04  1.79273E+07
       175      870.0  6.24352E+04  1.82395E+07
       176      875.0  6.24302E+04  1.85516E+07
       177      880.0  6.31130E+04  1.88672E+07
       178      885.0  6.54228E+04  1.91943E+07
       179      890.0  6.68524E+04  1.95286E+07
       180      895.0  6.70500E+04  1.98638E+07
       181      900.0  6.90866E+04  2.02093E+07
       182      905.0  6.59022E+04  2.05388E+07
       183      910.0  6.88902E+04  2.08832E+07
       184      915.0  7.07506E+04  2.12370E+07
       185      920.0  6.91916E+04  2.15829E+07
       186      925.0  7.54332E+04  2.19601E+07
       187      930.0  7.16342E+04  2.23183E+07
       188      935.0  7.37476E+04  2.26870E+07
       189      940.0  7.50244E+04  2.30621E+07
       190      945.0  7.16930E+04  2.34206E+07
       191      950.0  7.78788E+04  2.38100E+07
       192      955.0  7.73908E+04  2.41969E+07
       193      960.0  7.94508E+04  2.45942E+07
       194      965.0  8.14004E+04  2.50012E+07
       195      970.0  7.66864E+04  2.53846E+07
       196      975.0  8.22820E+04  2.57960E+07
       197      980.0  8.06288E+04  2.61992E+07
       198      985.0  8.27176E+04  2.66128E+07
       199      990.0  8.61498E+04  2.70435E+07
       200      995.0  8.30268E+04  2.74587E+07
       201     1000.0  8.57960E+04  2.78876E+07
       202     1005.0  8.87548E+04  2.83314E+07
       203     1010.0  8.76046E+04  2.87694E+07
       204     1015.0  8.81714E+04  2.92103E+07
       205     1020.0  9.03762E+04  2.96622E+07
       206     1025.0  8.94758E+04  3.01095E+07
       207     1030.0  9.36962E+04  3.05780E+07
       208     1035.0  9.43302E+04  3.10497E+07
       209     1040.0  9.24124E+04  3.15117E+07
       210     1045.0  9.72096E+04  3.19978E+07
       211     1050.0  9.29054E+04  3.24623E+07
       212     1055.0  9.96168E+04  3.29604E+07
       213     1060.0  1.00817E+05  3.34645E+07
       214     1065.0  9.86910E+04  3.39579E+07
       215     1070.0  1.05092E+05  3.44834E+07
       216     1075.0  1.01468E+05  3.49907E+07
       217     1080.0  1.02797E+05  3.55047E+07
       218     1085.0  1.05215E+05  3.60308E+07
       219     1090.0  1.03551E+05  3.65486E+07
       220     1095.0  1.09105E+05  3.70941E+07
       221     1100.0  1.11019E+05  3.76492E+07
       222     1105.0  1.09249E+05  3.81954E+07
       223     1110.0  1.13986E+05  3.87654E+07
       224     1115.0  1.10296E+05  3.93168E+07
       225     1120.0  1.14725E+05  3.98905E+07
       226     1125.0  1.14937E+05  4.04651E+07
       227     1130.0  1.16553E+05  4.10479E+07
       228     1135.0  1.16922E+05  4.16325E+07
       229     1140.0  1.21537E+05  4.22402E+07
       230     1145.0  1.20750E+05  4.28440E+07
       231     1150.0  1.24165E+05  4.34648E+07
       232     1155.0  1.22947E+05  4.40795E+07
       233     1160.0  1.21396E+05  4.46865E+07
       234     1165.0  1.28047E+05  4.53267E+07
       235     1170.0  1.25818E+05  4.59558E+07
       236     1175.0  1.31618E+05  4.66139E+07
       237     1180.0  1.32909E+05  4.72785E+07
       238     1185.0  1.31505E+05  4.79360E+07
       239     1190.0  1.33805E+05  4.86050E+07
       240     1195.0  1.32459E+05  4.92673E+07
       241     1200.0  1.33579E+05  4.99352E+07
       242     1205.0  1.43389E+05  5.06521E+07
       243     1210.0  1.36797E+05  5.13361E+07
       244     1215.0  1.43924E+05  5.20557E+07
       245     1220.0  1.42352E+05  5.27675E+07
       246     1225.0  1.39971E+05  5.34674E+07
       247     1230.0  1.47934E+05  5.42070E+07
       248     1235.0  1.46760E+05  5.49408E+07
       249     1240.0  1.47117E+05  5.56764E+07
       250     1245.0  1.50822E+05  5.64305E+07
       251     1250.0  1.53313E+05  5.71971E+07
       252     1255.0  1.53348E+05  5.79638E+07
       253     1260.0  1.57219E+05  5.87499E+07
       254     1265.0  1.55279E+05  5.95263E+07
       255     1270.0  1.56921E+05  6.03109E+07
       256     1275.0  1.60240E+05  6.11121E+07
       257     1280.0  1.60763E+05  6.19159E+07
       258     1285.0  1.67605E+05  6.27540E+07
       259     1290.0  1.64463E+05  6.35763E+07
       260     1295.0  1.66788E+05  6.44102E+07
       261     1300.0  1.73781E+05  6.52791E+07
       262     1305.0  1.66594E+05  6.61121E+07
       263     1310.0  1.74361E+05  6.69839E+07
       264     1315.0  1.75506E+05  6.78614E+07
       265     1320.0  1.76949E+05  6.87462E+07
       266     1325.0  1.81226E+05  6.96523E+07
       267     1330.0  1.79956E+05  7.05521E+07
       268     1335.0  1.80852E+05  7.14563E+07
       269     1340.0  1.87414E+05  7.23934E+07
       270     1345.0  1.84751E+05  7.33172E+07
       271     1350.0  1.90679E+05  7.42706E+07
       272     1355.0  1.87566E+05  7.52084E+07
       273     1360.0  1.90432E+05  7.61605E+07
       274     1365.0  1.97214E+05  7.71466E+07
       275     1370.0  1.95611E+05  7.81247E+07
       276     1375.0  2.02694E+05  7.91381E+07
       277     1380.0  1.99653E+05  8.01364E+07
       278     1385.0  2.02147E+05  8.11471E+07
       279     1390.0  2.06093E+05  8.21776E+07
       280     1395.0  2.11465E+05  8.32349E+07
       281     1400.0  2.02797E+05  8.42489E+07
       282     1405.0  2.16121E+05  8.53295E+07
       283     1410.0  2.10078E+05  8.63799E+07
       284     1415.0  2.14042E+05  8.74501E+07
       285     1420.0  2.23059E+05  8.85654E+07
       286     1425.0  2.18301E+05  8.96569E+07
       287     1430.0  2.28252E+05  9.07982E+07
       288     1435.0  2.26269E+05  9.19295E+07
       289     1440.0  2.25743E+05  9.30582E+07
       290     1445.0  2.32501E+05  9.42207E+07
       291     1450.0  2.30438E+05  9.53729E+07
       292     1455.0  2.34198E+05  9.65439E+07
       293     1460.0  2.45008E+05  9.77690E+07
       294     1465.0  2.32584E+05  9.89319E+07
       295     1470.0  2.46533E+05  1.00165E+08
       296     1475.0  2.42017E+05  1.01375E+08
       297     1480.0  2.48319E+05  1.02616E+08
       298     1485.0  2.53991E+05  1.03886E+08
       299     1490.0  2.49726E+05  1.05135E+08
       300     1495.0  2.54686E+05  1.06408E+08
       301     1500.0  2.59465E+05  1.07706E+08
       302     1505.0  2.62375E+05  1.09017E+08
       303     1510.0  2.64481E+05  1.10340E+08
       304     1515.0  2.66064E+05  1.11670E+08
       305     1520.0  2.65706E+05  1.12999E+08
       306     1525.0  2.76195E+05  1.14380E+08
       307     1530.0  2.72913E+05  1.15744E+08
       308     1535.0  2.77135E+05  1.17130E+08
       309     1540.0  2.83106E+05  1.18545E+08
       310     1545.0  2.79193E+05  1.19941E+08
       311     1550.0  2.87952E+05  1.21381E+08
       312     1555.0  2.86142E+05  1.22812E+08
       313     1560.0  2.86915E+05  1.24246E+08
       314     1565.0  3.03576E+05  1.25764E+08
       315     1570.0  2.90856E+05  1.27219E+08
       316     1575.0  3.09097E+05  1.28764E+08
       317     1580.0  3.02205E+05  1.30275E+08
       318     1585.0  3.00911E+05  1.31780E+08
       319     1590.0  3.13710E+05  1.33348E+08
       320     1595.0  3.11756E+05  1.34907E+08
       321     1600.0  3.13987E+05  1.36477E+08
       322     1605.0  3.19654E+05  1.38075E+08
       323     1610.0  3.13586E+05  1.39643E+08
       324     1615.0  3.28775E+05  1.41287E+08
       325     1620.0  3.31428E+05  1.42944E+08
       326     1625.0  3.28782E+05  1.44588E+08
       327     1630.0  3.34992E+05  1.46263E+08
       328     1635.0  3.36645E+05  1.47946E+08
       329     1640.0  3.40318E+05  1.49648E+08
       330     1645.0  3.45190E+05  1.51374E+08
       331     1650.0  3.45675E+05  1.53102E+08
       332     1655.0  3.47463E+05  1.54839E+08
       333     1660.0  3.55703E+05  1.56618E+08
       334     1665.0  3.53234E+05  1.58384E+08
       335     1670.0  3.68438E+05  1.60226E+08
       336     1675.0  3.60134E+05  1.62027E+08
       337     1680.0  3.68475E+05  1.63869E+08
       338     1685.0  3.75591E+05  1.65747E+08
       339     1690.0  3.71161E+05  1.67603E+08
       340     1695.0  3.75078E+05  1.69479E+08
       341     1700.0  3.81850E+05  1.71388E+08
       342     1705.0  3.80860E+05  1.73292E+08
       343     1710.0  3.96483E+05  1.75275E+08
       344     1715.0  3.86806E+05  1.77209E+08
       345     1720.0  3.93850E+05  1.79178E+08
       346     1725.0  4.00804E+05  1.81182E+08
       347     1730.0  4.00913E+05  1.83186E+08
       348     1735.0  4.11889E+05  1.85246E+08
       349     1740.0  4.11525E+05  1.87303E+08
       350     1745.0  4.15248E+05  1.89380E+08
       351     1750.0  4.17872E+05  1.91469E+08
       352     1755.0  4.23155E+05  1.93585E+08
       353     1760.0  4.21027E+05  1.95690E+08
       354     1765.0  4.33663E+05  1.97858E+08
       355     1770.0  4.29527E+05  2.00006E+08
       356     1775.0  4.36470E+05  2.02188E+08
       357     1780.0  4.49246E+05  2.04434E+08
       358     1785.0  4.36714E+05  2.06618E+08
       359     1790.0  4.59667E+05  2.08916E+08
       360     1795.0  4.52052E+05  2.11177E+08
       361     1800.0  4.53230E+05  2.13443E+08
       362     1805.0  4.66461E+05  2.15775E+08
       363     1810.0  4.60985E+05  2.18080E+08
       364     1815.0  4.73958E+05  2.20450E+08
       365     1820.0  4.86336E+05  2.22881E+08
       366     1825.0  4.74873E+05  2.25256E+08
       367     1830.0  4.84254E+05  2.27677E+08
       368     1835.0  4.81479E+05  2.30085E+08
       369     1840.0  4.89605E+05  2.32533E+08
       370     1845.0  5.03737E+05  2.35051E+08
       371     1850.0  4.94758E+05  2.37525E+08
       372     1855.0  5.08734E+05  2.40069E+08
       373     1860.0  5.13150E+05  2.42634E+08
       374     1865.0  5.10935E+05  2.45189E+08
       375     1870.0  5.20558E+05  2.47792E+08
       376     1875.0  5.25069E+05  2.50417E+08
       377     1880.0  5.17840E+05  2.53006E+08
       378     1885.0  5.41277E+05  2.55713E+08
       379     1890.0  5.39704E+05  2.58411E+08
       380     1895.0  5.41442E+05  2.61119E+08
       381     1900.0  5.57401E+05  2.63906E+08
       382     1905.0  5.35996E+05  2.66586E+08
       383     1910.0  5.66984E+05  2.69420E+08
       384     1915.0  5.54885E+05  2.72195E+08
       385     1920.0  5.58446E+05  2.74987E+08
       386     1925.0  5.82868E+05  2.77901E+08
       387     1930.0  5.67839E+05  2.80741E+08
       388     1935.0  5.92304E+05  2.83702E+08
       389     1940.0  5.83293E+05  2.86619E+08
       390     1945.0  5.81436E+05  2.89526E+08
       391     1950.0  5.97105E+05  2.92511E+08
       392     1955.0  6.03731E+05  2.95530E+08
       393     1960.0  6.06919E+05  2.98565E+08
       394     1965.0  6.25283E+05  3.01691E+08
       395     1970.0  6.03914E+05  3.04711E+08
       396     1975.0  6.22283E+05  3.07822E+08
       397     1980.0  6.24658E+05  3.10945E+08
       398     1985.0  6.29226E+05  3.14091E+08
       399     1990.0  6.41828E+05  3.17301E+08
       400     1995.0  6.40516E+05  3.20503E+08
       401     2000.0  6.43993E+05  3.23723E+08
       402     2005.0  6.69354E+05  3.27070E+08
       403     2010.0  6.50936E+05  3.30325E+08
       404     2015.0  6.58296E+05  3.33616E+08
       405     2020.0  6.72902E+05  3.36981E+08
       406     2025.0  6.61995E+05  3.40291E+08
       407     2030.0  6.89905E+05  3.43740E+08
       408     2035.0  6.90872E+05  3.47194E+08
       409     2040.0  6.96460E+05  3.50677E+08
       410     2045.0  7.07973E+05  3.54217E+08
       411     2050.0  6.90284E+05  3.57668E+08
       412     2055.0  7.10878E+05  3.61222E+08
       413     2060.0  7.12901E+05  3.64787E+08
       414     2065.0  7.14027E+05  3.68357E+08
       415     2070.0  7.41547E+05  3.72065E+08
       416     2075.0  7.27684E+05  3.75703E+08
       417     2080.0  7.40437E+05  3.79405E+08
       418     2085.0  7.45232E+05  3.83132E+08
       419     2090.0  7.48430E+05  3.86874E+08
       420     2095.0  7.54690E+05  3.90647E+08
       421     2100.0  7.70227E+05  3.94498E+08
       422     2105.0  7.69113E+05  3.98344E+08
       423     2110.0  7.83237E+05  4.02260E+08
       424     2115.0  7.82258E+05  4.06171E+08
       425     2120.0  7.84815E+05  4.10095E+08
       426     2125.0  7.91288E+05  4.14052E+08
       427     2130.0  7.95996E+05  4.18032E+08
       428     2135.0  8.05872E+05  4.22061E+08
       429     2140.0  8.23339E+05  4.26178E+08
       430     2145.0  8.17772E+05  4.30267E+08
       431     2150.0  8.44251E+05  4.34488E+08
       432     2155.0  8.35663E+05  4.38666E+08
       433     2160.0  8.30382E+05  4.42818E+08
       434     2165.0  8.50958E+05  4.47073E+08
       435     2170.0  8.34612E+05  4.51246E+08
       436     2175.0  8.74333E+05  4.55618E+08
       437     2180.0  8.70316E+05  4.59969E+08
       438     2185.0  8.81012E+05  4.64374E+08
       439     2190.0  8.79493E+05  4.68772E+08
       440     2195.0  8.84568E+05  4.73195E+08
       441     2200.0  8.84399E+05  4.77617E+08
       442     2205.0  9.09496E+05  4.82164E+08
       443     2210.0  9.10925E+05  4.86719E+08
       444     2215.0  9.18424E+05  4.91311E+08
       445     2220.0  9.28628E+05  4.95954E+08
       446     2225.0  9.26826E+05  5.00588E+08
       447     2230.0  9.44019E+05  5.05308E+08
       448     2235.0  9.33800E+05  5.09977E+08
       449     2240.0  9.45240E+05  5.14703E+08
       450     2245.0  9.62785E+05  5.19517E+08
       451     2250.0  9.75835E+05  5.24397E+08
       452     2255.0  9.66227E+05  5.29228E+08
       453     2260.0  1.00076E+06  5.34231E+08
       454     2265.0  9.73965E+05  5.39101E+08
       455     2270.0  9.97898E+05  5.44091E+08
       456     2275.0  9.94770E+05  5.49065E+08
       457     2280.0  1.01375E+06  5.54133E+08
       458     2285.0  1.03340E+06  5.59300E+08
       459     2290.0  1.02527E+06  5.64427E+08
       460     2295.0  1.05005E+06  5.69677E+08
       461     2300.0  1.04337E+06  5.74894E+08
       462     2305.0  1.04443E+06  5.80116E+08
       463     2310.0  1.05348E+06  5.85383E+08
       464     2315.0  1.06678E+06  5.90717E+08
       465     2320.0  1.07670E+06  5.96101E+08
       466     2325.0  1.09137E+06  6.01558E+08
       467     2330.0  1.09851E+06  6.07050E+08
       468     2335.0  1.10437E+06  6.12572E+08
       469     2340.0  1.11170E+06  6.18131E+08
       470     2345.0  1.10951E+06  6.23678E+08
       471     2350.0  1.12765E+06  6.29316E+08
       472     2355.0  1.13533E+06  6.34993E+08
       473     2360.0  1.14451E+06  6.40716E+08
       474     2365.0  1.16244E+06  6.46528E+08
       475     2370.0  1.15543E+06  6.52305E+08
       476     2375.0  1.17270E+06  6.58168E+08
       477     2380.0  1.18149E+06  6.64076E+08
       478     2385.0  1.17885E+06  6.69970E+08
       479     2390.0  1.19925E+06  6.75966E+08
       480     2395.0  1.21059E+06  6.82019E+08
       481     2400.0  1.21304E+06  6.88085E+08
       482     2405.0  1.24604E+06  6.94315E+08
       483     2410.0  1.21885E+06  7.00409E+08
       484     2415.0  1.23778E+06  7.06598E+08
       485     2420.0  1.25215E+06  7.12859E+08
       486     2425.0  1.24575E+06  7.19087E+08
       487     2430.0  1.29270E+06  7.25551E+08
       488     2435.0  1.27246E+06  7.31913E+08
       489     2440.0  1.29468E+06  7.38387E+08
       490     2445.0  1.29431E+06  7.44858E+08
       491     2450.0  1.31058E+06  7.51411E+08
       492     2455.0  1.31182E+06  7.57970E+08
       493     2460.0  1.33480E+06  7.64644E+08
       494     2465.0  1.33181E+06  7.71303E+08
       495     2470.0  1.36187E+06  7.78112E+08
       496     2475.0  1.36178E+06  7.84921E+08
       497     2480.0  1.35839E+06  7.91713E+08
       498     2485.0  1.38331E+06  7.98630E+08
       499     2490.0  1.36680E+06  8.05464E+08
       500     2495.0  1.39497E+06  8.12439E+08
       501     2500.0  1.40260E+06  8.19452E+08
       502     2505.0  1.42333E+06  8.26568E+08
       503     2510.0  1.43865E+06  8.33762E+08
       504     2515.0  1.44179E+06  8.40971E+08
       505     2520.0  1.44869E+06  8.48214E+08
       506     2525.0  1.47114E+06  8.55570E+08
       507     2530.0  1.44560E+06  8.62798E+08
       508     2535.0  1.49330E+06  8.70264E+08
       509     2540.0  1.48750E+06  8.77702E+08
       510     2545.0  1.50517E+06  8.85228E+08
       511     2550.0  1.51908E+06  8.92823E+08
       512     2555.0  1.51120E+06  9.00379E+08
       513     2560.0  1.53301E+06  9.08044E+08
       514     2565.0  1.55544E+06  9.15821E+08
       515     2570.0  1.53843E+06  9.23513E+08
       516     2575.0  1.58680E+06  9.31447E+08
       517     2580.0  1.58167E+06  9.39356E+08
       518     2585.0  1.58631E+06  9.47287E+08
       519     2590.0  1.60989E+06  9.55337E+08
       520     2595.0  1.60923E+06  9.63383E+08
       521     2600.0  1.61987E+06  9.71482E+08
       522     2605.0  1.64117E+06  9.79688E+08
       523     2610.0  1.63766E+06  9.87876E+08
       524     2615.0  1.66386E+06  9.96196E+08
       525     2620.0  1.67642E+06  1.00458E+09
       526     2625.0  1.67734E+06  1.01296E+09
       527     2630.0  1.70845E+06  1.02151E+09
       528     2635.0  1.69533E+06  1.02998E+09
       529     2640.0  1.70530E+06  1.03851E+09
       530     2645.0  1.74196E+06  1.04722E+09
       531     2650.0  1.74092E+06  1.05592E+09
       532     2655.0  1.77233E+06  1.06479E+09
       533     2660.0  1.76285E+06  1.07360E+09
       534     2665.0  1.77752E+06  1.08249E+09
       535     2670.0  1.80010E+06  1.09149E+09
       536     2675.0  1.79631E+06  1.10047E+09
       537     2680.0  1.83106E+06  1.10963E+09
       538     2685.0  1.82460E+06  1.11875E+09
       539     2690.0  1.83462E+06  1.12792E+09
       540     2695.0  1.85217E+06  1.13718E+09
       541     2700.0  1.87610E+06  1.14656E+09
       542     2705.0  1.87819E+06  1.15595E+09
       543     2710.0  1.90842E+06  1.16550E+09
       544     2715.0  1.89772E+06  1.17498E+09
       545     2720.0  1.92542E+06  1.18461E+09
       546     2725.0  1.93023E+06  1.19426E+09
       547     2730.0  1.94876E+06  1.20401E+09
       548     2735.0  1.96631E+06  1.21384E+09
       549     2740.0  1.97833E+06  1.22373E+09
       550     2745.0  1.99033E+06  1.23368E+09
       551     2750.0  2.00294E+06  1.24370E+09
       552     2755.0  2.01437E+06  1.25377E+09
       553     2760.0  2.01915E+06  1.26386E+09
       554     2765.0  2.06815E+06  1.27420E+09
       555     2770.0  2.04239E+06  1.28442E+09
       556     2775.0  2.07061E+06  1.29477E+09
       557     2780.0  2.09324E+06  1.30524E+09
       558     2785.0  2.08472E+06  1.31566E+09
       559     2790.0  2.14122E+06  1.32637E+09
       560     2795.0  2.11233E+06  1.33693E+09
       561     2800.0  2.15180E+06  1.34769E+09
       562     2805.0  2.15768E+06  1.35847E+09
       563     2810.0  2.17514E+06  1.36935E+09
       564     2815.0  2.19053E+06  1.38030E+09
       565     2820.0  2.22896E+06  1.39145E+09
       566     2825.0  2.20411E+06  1.40247E+09
       567     2830.0  2.23662E+06  1.41365E+09
       568     2835.0  2.24608E+06  1.42488E+09
       569     2840.0  2.25599E+06  1.43616E+09
       570     2845.0  2.28406E+06  1.44758E+09
       571     2850.0  2.27943E+06  1.45898E+09
       572     2855.0  2.31824E+06  1.47057E+09
       573     2860.0  2.32992E+06  1.48222E+09
       574     2865.0  2.32668E+06  1.49385E+09
       575     2870.0  2.36579E+06  1.50568E+09
       576     2875.0  2.38030E+06  1.51758E+09
       577     2880.0  2.37780E+06  1.52947E+09
       578     2885.0  2.41269E+06  1.54154E+09
       579     2890.0  2.41866E+06  1.55363E+09
       580     2895.0  2.44620E+06  1.56586E+09
       581     2900.0  2.47247E+06  1.57822E+09
       582     2905.0  2.45252E+06  1.59048E+09
       583     2910.0  2.50092E+06  1.60299E+09
       584     2915.0  2.47800E+06  1.61538E+09
       585     2920.0  2.51007E+06  1.62793E+09
       586     2925.0  2.55702E+06  1.64071E+09
       587     2930.0  2.53075E+06  1.65337E+09
       588     2935.0  2.58874E+06  1.66631E+09
       589     2940.0  2.57298E+06  1.67918E+09
       590     2945.0  2.61364E+06  1.69225E+09
       591     2950.0  2.62049E+06  1.70535E+09
       592     2955.0  2.63556E+06  1.71853E+09
       593     2960.0  2.65535E+06  1.73180E+09
       594     2965.0  2.69637E+06  1.74528E+09
       595     2970.0  2.67328E+06  1.75865E+09
       596     2975.0  2.71315E+06  1.77222E+09
       597     2980.0  2.71776E+06  1.78581E+09
       598     2985.0  2.73163E+06  1.79946E+09
       599     2990.0  2.78138E+06  1.81337E+09
       600     2995.0  2.77267E+06  1.82723E+09
       601     3000.0  2.79807E+06  1.84122E+09
       602     3005.0  2.83360E+06  1.85539E+09
       603     3010.0  2.82382E+06  1.86951E+09
       604     3015.0  2.84675E+06  1.88374E+09
       605     3020.0  2.86520E+06  1.89807E+09
       606     3025.0  2.86522E+06  1.91240E+09
       607     3030.0  2.92556E+06  1.92702E+09
       608     3035.0  2.93038E+06  1.94168E+09
       609     3040.0  2.96871E+06  1.95652E+09
       610     3045.0  2.97442E+06  1.97139E+09
       611     3050.0  2.96941E+06  1.98624E+09
       612     3055.0  2.99538E+06  2.00122E+09
       613     3060.0  3.01593E+06  2.01630E+09
       614     3065.0  3.04180E+06  2.03150E+09
       615     3070.0  3.06504E+06  2.04683E+09
       616     3075.0  3.07036E+06  2.06218E+09
       617     3080.0  3.11760E+06  2.07777E+09
       618     3085.0  3.11700E+06  2.09335E+09
       619     3090.0  3.12283E+06  2.10897E+09
       620     3095.0  3.15756E+06  2.12476E+09
       621     3100.0  3.17979E+06  2.14066E+09
       622     3105.0  3.21134E+06  2.15671E+09
       623     3110.0  3.23109E+06  2.17287E+09
       624     3115.0  3.25304E+06  2.18913E+09
       625     3120.0  3.25750E+06  2.20542E+09
       626     3125.0  3.26912E+06  2.22177E+09
       627     3130.0  3.28052E+06  2.23817E+09
       628     3135.0  3.33807E+06  2.25486E+09
       629     3140.0  3.33074E+06  2.27151E+09
       630     3145.0  3.37835E+06  2.28840E+09
       631     3150.0  3.41823E+06  2.30550E+09
       632     3155.0  3.39687E+06  2.32248E+09
       633     3160.0  3.42621E+06  2.33961E+09
       634     3165.0  3.43418E+06  2.35678E+09
       635     3170.0  3.44744E+06  2.37402E+09
       636     3175.0  3.51881E+06  2.39161E+09
       637     3180.0  3.51669E+06  2.40920E+09
       638     3185.0  3.56182E+06  2.42701E+09
       639     3190.0  3.56898E+06  2.44485E+09
       640     3195.0  3.58542E+06  2.46278E+09
       641     3200.0  3.57523E+06  2.48065E+09
       642     3205.0  3.61917E+06  2.49875E+09
       643     3210.0  3.64162E+06  2.51696E+09
       644     3215.0  3.67743E+06  2.53535E+09
       645     3220.0  3.70385E+06  2.55386E+09
       646     3225.0  3.72181E+06  2.57247E+09
       647     3230.0  3.74718E+06  2.59121E+09
       648     3235.0  3.74527E+06  2.60994E+09
       649     3240.0  3.78904E+06  2.62888E+09
       650     3245.0  3.80096E+06  2.64789E+09
       651     3250.0  3.82712E+06  2.66702E+09
       652     3255.0  3.86452E+06  2.68634E+09
       653     3260.0  3.91147E+06  2.70590E+09
       654     3265.0  3.89764E+06  2.72539E+09
       655     3270.0  3.93112E+06  2.74505E+09
       656     3275.0  3.90393E+06  2.76456E+09
       657     3280.0  3.97220E+06  2.78443E+09
       658     3285.0  4.00353E+06  2.80444E+09
       659     3290.0  4.02026E+06  2.82454E+09
       660     3295.0  4.08889E+06  2.84499E+09
       661     3300.0  4.04993E+06  2.86524E+09
       662     3305.0  4.12105E+06  2.88584E+09
       663     3310.0  4.10258E+06  2.90636E+09
       664     3315.0  4.13737E+06  2.92704E+09
       665     3320.0  4.17134E+06  2.94790E+09
       666     3325.0  4.20643E+06  2.96893E+09
       667     3330.0  4.24482E+06  2.99016E+09
       668     3335.0  4.25673E+06  3.01144E+09
       669     3340.0  4.26338E+06  3.03276E+09
       670     3345.0  4.27423E+06  3.05413E+09
       671     3350.0  4.32427E+06  3.07575E+09
       672     3355.0  4.33048E+06  3.09740E+09
       673     3360.0  4.40020E+06  3.11940E+09
       674     3365.0  4.41582E+06  3.14148E+09
       675     3370.0  4.43387E+06  3.16365E+09
       676     3375.0  4.48044E+06  3.18605E+09
       677     3380.0  4.48558E+06  3.20848E+09
       678     3385.0  4.46523E+06  3.23081E+09
       679     3390.0  4.53919E+06  3.25350E+09
       680     3395.0  4.54716E+06  3.27624E+09
       681     3400.0  4.62801E+06  3.29938E+09
       682     3405.0  4.64733E+06  3.32262E+09
       683     3410.0  4.65531E+06  3.34589E+09
       684     3415.0  4.66608E+06  3.36922E+09
       685     3420.0  4.68302E+06  3.39264E+09
       686     3425.0  4.70202E+06  3.41615E+09
       687     3430.0  4.78549E+06  3.44008E+09
       688     3435.0  4.77970E+06  3.46397E+09
       689     3440.0  4.83421E+06  3.48815E+09
       690     3445.0  4.83453E+06  3.51232E+09
       691     3450.0  4.87686E+06  3.53670E+09
       692     3455.0  4.88790E+06  3.56114E+09
       693     3460.0  4.91965E+06  3.58574E+09
       694     3465.0  4.96302E+06  3.61056E+09
       695     3470.0  5.00374E+06  3.63557E+09
       696     3475.0  5.02860E+06  3.66072E+09
       697     3480.0  5.04927E+06  3.68596E+09
       698     3485.0  5.10163E+06  3.71147E+09
       699     3490.0  5.06171E+06  3.73678E+09
       700     3495.0  5.11981E+06  3.76238E+09
       701     3500.0  5.14273E+06  3.78809E+09
       702     3505.0  5.20949E+06  3.81414E+09
       703     3510.0  5.27271E+06  3.84050E+09
       704     3515.0  5.25716E+06  3.86679E+09
       705     3520.0  5.32234E+06  3.89340E+09
       706     3525.0  5.30625E+06  3.91993E+09
       707     3530.0  5.30293E+06  3.94645E+09
       708     3535.0  5.39431E+06  3.97342E+09
       709     3540.0  5.38995E+06  4.00037E+09
       710     3545.0  5.45798E+06  4.02766E+09
       711     3550.0  5.50223E+06  4.05517E+09
       712     3555.0  5.49758E+06  4.08266E+09
       713     3560.0  5.54796E+06  4.11040E+09
       714     3565.0  5.57490E+06  4.13827E+09
       715     3570.0  5.56191E+06  4.16608E+09
       716     3575.0  5.66138E+06  4.19439E+09
       717     3580.0  5.67884E+06  4.22278E+09
       718     3585.0  5.70790E+06  4.25132E+09
       719     3590.0  5.75160E+06  4.28008E+09
       720     3595.0  5.75908E+06  4.30888E+09
       721     3600.0  5.78920E+06  4.33782E+09
       722     3605.0  5.82532E+06  4.36695E+09
       723     3610.0  5.84685E+06  4.39618E+09
       724     3615.0  5.91743E+06  4.42577E+09
       725     3620.0  5.95294E+06  4.45553E+09
       726     3625.0  5.99019E+06  4.48548E+09
       727     3630.0  6.02754E+06  4.51562E+09
       728     3635.0  5.99585E+06  4.54560E+09
       729     3640.0  6.04463E+06  4.57583E+09
       730     3645.0  6.10163E+06  4.60633E+09
       731     3650.0  6.13539E+06  4.63701E+09
       732     3655.0  6.24280E+06  4.66822E+09
       733     3660.0  6.19693E+06  4.69921E+09
       734     3665.0  6.27499E+06  4.73058E+09
       735     3670.0  6.27099E+06  4.76194E+09
       736     3675.0  6.32214E+06  4.79355E+09
       737     3680.0  6.35329E+06  4.82532E+09
       738     3685.0  6.36272E+06  4.85713E+09
       739     3690.0  6.43209E+06  4.88929E+09
       740     3695.0  6.47042E+06  4.92164E+09
       741     3700.0  6.50860E+06  4.95418E+09
       742     3705.0  6.53815E+06  4.98688E+09
       743     3710.0  6.58108E+06  5.01978E+09
       744     3715.0  6.57344E+06  5.05265E+09
       745     3720.0  6.65705E+06  5.08593E+09
       746     3725.0  6.69297E+06  5.11940E+09
       747     3730.0  6.74676E+06  5.15313E+09
       748     3735.0  6.78622E+06  5.18706E+09
       749     3740.0  6.78196E+06  5.22097E+09
       750     3745.0  6.84453E+06  5.25520E+09
       751     3750.0  6.85489E+06  5.28947E+09
       752     3755.0  6.91698E+06  5.32406E+09
       753     3760.0  6.94327E+06  5.35877E+09
       754     3765.0  7.03003E+06  5.39392E+09
       755     3770.0  7.02812E+06  5.42906E+09
       756     3775.0  7.08014E+06  5.46446E+09
       757     3780.0  7.10557E+06  5.49999E+09
       758     3785.0  7.13025E+06  5.53564E+09
       759     3790.0  7.19251E+06  5.57160E+09
       760     3795.0  7.20377E+06  5.60762E+09
       761     3800.0  7.30924E+06  5.64417E+09
       762     3805.0  7.30726E+06  5.68071E+09
       763     3810.0  7.37210E+06  5.71757E+09
       764     3815.0  7.37378E+06  5.75444E+09
       765     3820.0  7.47152E+06  5.79179E+09
       766     3825.0  7.46535E+06  5.82912E+09
       767     3830.0  7.50799E+06  5.86666E+09
       768     3835.0  7.57057E+06  5.90451E+09
       769     3840.0  7.61513E+06  5.94259E+09
       770     3845.0  7.65159E+06  5.98085E+09
       771     3850.0  7.65170E+06  6.01910E+09
       772     3855.0  7.73989E+06  6.05780E+09
       773     3860.0  7.73486E+06  6.09648E+09
       774     3865.0  7.80346E+06  6.13550E+09
       775     3870.0  7.87777E+06  6.17488E+09
       776     3875.0  7.92048E+06  6.21449E+09
       777     3880.0  7.95077E+06  6.25424E+09
       778     3885.0  7.99768E+06  6.29423E+09
       779     3890.0  8.02765E+06  6.33437E+09
       780     3895.0  8.08020E+06  6.37477E+09
       781     3900.0  8.12053E+06  6.41537E+09
       782     3905.0  8.17542E+06  6.45625E+09
       783     3910.0  8.20285E+06  6.49726E+09
       784     3915.0  8.23449E+06  6.53843E+09
       785     3920.0  8.29605E+06  6.57992E+09
       786     3925.0  8.33360E+06  6.62158E+09
       787     3930.0  8.36631E+06  6.66341E+09
       788     3935.0  8.45982E+06  6.70571E+09
       789     3940.0  8.46997E+06  6.74806E+09
       790     3945.0  8.53024E+06  6.79071E+09
       791     3950.0  8.59861E+06  6.83371E+09
       792     3955.0  8.58899E+06  6.87665E+09
       793     3960.0  8.68360E+06  6.92007E+09
       794     3965.0  8.71880E+06  6.96366E+09
       795     3970.0  8.76247E+06  7.00748E+09
       796     3975.0  8.82784E+06  7.05162E+09
       797     3980.0  8.85418E+06  7.09589E+09
       798     3985.0  8.88102E+06  7.14029E+09
       799     3990.0  8.97989E+06  7.18519E+09
       800     3995.0  8.96452E+06  7.23001E+09
       801     4000.0  9.07766E+06  7.27540E+09
       802     4005.0  9.05817E+06  7.32069E+09
       803     4010.0  9.14652E+06  7.36643E+09
       804     4015.0  9.20734E+06  7.41246E+09
       805     4020.0  9.21849E+06  7.45856E+09
       806     4025.0  9.31056E+06  7.50511E+09
       807     4030.0  9.35067E+06  7.55186E+09
       808     4035.0  9.37886E+06  7.59876E+09
       809     4040.0  9.47658E+06  7.64614E+09
       810     4045.0  9.52160E+06  7.69375E+09
       811     4050.0  9.54208E+06  7.74146E+09
       812     4055.0  9.56735E+06  7.78929E+09
       813     4060.0  9.62330E+06  7.83741E+09
       814     4065.0  9.69599E+06  7.88589E+09
       815     4070.0  9.74689E+06  7.93462E+09
       816     4075.0  9.80542E+06  7.98365E+09
       817     4080.0  9.90979E+06  8.03320E+09
       818     4085.0  9.88464E+06  8.08262E+09
       819     4090.0  9.95844E+06  8.13242E+09
       820     4095.0  1.00363E+07  8.18260E+09
       821     4100.0  1.00310E+07  8.23275E+09
       822     4105.0  1.01225E+07  8.28337E+09
       823     4110.0  1.01806E+07  8.33427E+09
       824     4115.0  1.02156E+07  8.38535E+09
       825     4120.0  1.03086E+07  8.43689E+09
       826     4125.0  1.03043E+07  8.48841E+09
       827     4130.0  1.03640E+07  8.54023E+09
       828     4135.0  1.04698E+07  8.59258E+09
       829     4140.0  1.04686E+07  8.64492E+09
       830     4145.0  1.05709E+07  8.69778E+09
       831     4150.0  1.06422E+07  8.75099E+09
       832     4155.0  1.06562E+07  8.80427E+09
       833     4160.0  1.07701E+07  8.85812E+09
       834     4165.0  1.07269E+07  8.91175E+09
       835     4170.0  1.08328E+07  8.96592E+09
       836     4175.0  1.08878E+07  9.02036E+09
       837     4180.0  1.09312E+07  9.07501E+09
       838     4185.0  1.10752E+07  9.13039E+09
       839     4190.0  1.10787E+07  9.18578E+09
       840     4195.0  1.11253E+07  9.24141E+09
       841     4200.0  1.11493E+07  9.29716E+09
       842     4205.0  1.12292E+07  9.35330E+09
       843     4210.0  1.12469E+07  9.40954E+09
       844     4215.0  1.13792E+07  9.46643E+09
       845     4220.0  1.13997E+07  9.52343E+09
       846     4225.0  1.15106E+07  9.58098E+09
       847     4230.0  1.15450E+07  9.63871E+09
       848     4235.0  1.15813E+07  9.69662E+09
       849     4240.0  1.16631E+07  9.75493E+09
       850     4245.0  1.16746E+07  9.81330E+09
       851     4250.0  1.17572E+07  9.87209E+09
       852     4255.0  1.18764E+07  9.93147E+09
       853     4260.0  1.18986E+07  9.99097E+09
       854     4265.0  1.20051E+07  1.00510E+10
       855     4270.0  1.20176E+07  1.01111E+10
       856     4275.0  1.20382E+07  1.01713E+10
       857     4280.0  1.21084E+07  1.02318E+10
       858     4285.0  1.21984E+07  1.02928E+10
       859     4290.0  1.22636E+07  1.03541E+10
       860     4295.0  1.24043E+07  1.04161E+10
       861     4300.0  1.23543E+07  1.04779E+10
       862     4305.0  1.25156E+07  1.05405E+10
       863     4310.0  1.24649E+07  1.06028E+10
       864     4315.0  1.25811E+07  1.06657E+10
       865     4320.0  1.26635E+07  1.07290E+10
       866     4325.0  1.27098E+07  1.07926E+10
       867     4330.0  1.28136E+07  1.08567E+10
       868     4335.0  1.28730E+07  1.09210E+10
       869     4340.0  1.29147E+07  1.09856E+10
       870     4345.0  1.29503E+07  1.10503E+10
       871     4350.0  1.30217E+07  1.11155E+10
       872     4355.0  1.30527E+07  1.11807E+10
       873     4360.0  1.32108E+07  1.12468E+10
       874     4365.0  1.32457E+07  1.13130E+10
       875     4370.0  1.33441E+07  1.13797E+10
       876     4375.0  1.34046E+07  1.14467E+10
       877     4380.0  1.34337E+07  1.15139E+10
       878     4385.0  1.34664E+07  1.15812E+10
       879     4390.0  1.35651E+07  1.16491E+10
       880     4395.0  1.36437E+07  1.17173E+10
       881     4400.0  1.37760E+07  1.17862E+10
       882     4405.0  1.38354E+07  1.18553E+10
       883     4410.0  1.39009E+07  1.19249E+10
       884     4415.0  1.39371E+07  1.19945E+10
       885     4420.0  1.39489E+07  1.20643E+10
       886     4425.0  1.40179E+07  1.21344E+10
       887     4430.0  1.41352E+07  1.22050E+10
       888     4435.0  1.42277E+07  1.22762E+10
       889     4440.0  1.42817E+07  1.23476E+10
       890     4445.0  1.43712E+07  1.24194E+10
       891     4450.0  1.44378E+07  1.24916E+10
       892     4455.0  1.44867E+07  1.25641E+10
       893     4460.0  1.45456E+07  1.26368E+10
       894     4465.0  1.46299E+07  1.27099E+10
       895     4470.0  1.47214E+07  1.27836E+10
       896     4475.0  1.48177E+07  1.28576E+10
       897     4480.0  1.49185E+07  1.29322E+10
       898     4485.0  1.49790E+07  1.30071E+10
       899     4490.0  1.49726E+07  1.30820E+10
       900     4495.0  1.50428E+07  1.31572E+10
       901     4500.0  1.51129E+07  1.32328E+10
       902     4505.0  1.52445E+07  1.33090E+10
       903     4510.0  1.53665E+07  1.33858E+10
       904     4515.0  1.53900E+07  1.34628E+10
       905     4520.0  1.55619E+07  1.35406E+10
       906     4525.0  1.54909E+07  1.36180E+10
       907     4530.0  1.55920E+07  1.36960E+10
       908     4535.0  1.56463E+07  1.37742E+10
       909     4540.0  1.57761E+07  1.38531E+10
       910     4545.0  1.58621E+07  1.39324E+10
       911     4550.0  1.59892E+07  1.40124E+10
       912     4555.0  1.60364E+07  1.40926E+10
       913     4560.0  1.61165E+07  1.41731E+10
       914     4565.0  1.61491E+07  1.42539E+10
       915     4570.0  1.61894E+07  1.43348E+10
       916     4575.0  1.63231E+07  1.44164E+10
       917     4580.0  1.63926E+07  1.44984E+10
       918     4585.0  1.65286E+07  1.45810E+10
       919     4590.0  1.66325E+07  1.46642E+10
       920     4595.0  1.66286E+07  1.47474E+10
       921     4600.0  1.67374E+07  1.48310E+10
       922     4605.0  1.67879E+07  1.49150E+10
       923     4610.0  1.68581E+07  1.49993E+10
       924     4615.0  1.69837E+07  1.50842E+10
       925     4620.0  1.70847E+07  1.51696E+10
       926     4625.0  1.71831E+07  1.52555E+10
       927     4630.0  1.72555E+07  1.53418E+10
       928     4635.0  1.73108E+07  1.54284E+10
       929     4640.0  1.73735E+07  1.55152E+10
       930     4645.0  1.74172E+07  1.56023E+10
       931     4650.0  1.75562E+07  1.56901E+10
       932     4655.0  1.77261E+07  1.57787E+10
       933     4660.0  1.77470E+07  1.58675E+10
       934     4665.0  1.79010E+07  1.59570E+10
       935     4670.0  1.78920E+07  1.60464E+10
       936     4675.0  1.79897E+07  1.61364E+10
       937     4680.0  1.80911E+07  1.62268E+10
       938     4685.0  1.80969E+07  1.63173E+10
       939     4690.0  1.83033E+07  1.64088E+10
       940     4695.0  1.83319E+07  1.65005E+10
       941     4700.0  1.84619E+07  1.65928E+10
       942     4705.0  1.85182E+07  1.66854E+10
       943     4710.0  1.86242E+07  1.67785E+10
       944     4715.0  1.86452E+07  1.68717E+10
       945     4720.0  1.87987E+07  1.69657E+10
       946     4725.0  1.88908E+07  1.70602E+10
       947     4730.0  1.90284E+07  1.71553E+10
       948     4735.0  1.91473E+07  1.72511E+10
       949     4740.0  1.91373E+07  1.73467E+10
       950     4745.0  1.93002E+07  1.74432E+10
       951     4750.0  1.92834E+07  1.75397E+10
       952     4755.0  1.94269E+07  1.76368E+10
       953     4760.0  1.95146E+07  1.77344E+10
       954     4765.0  1.96309E+07  1.78325E+10
       955     4770.0  1.97519E+07  1.79313E+10
       956     4775.0  1.98345E+07  1.80305E+10
       957     4780.0  1.99091E+07  1.81300E+10
       958     4785.0  1.99862E+07  1.82299E+10
       959     4790.0  2.00583E+07  1.83302E+10
       960     4795.0  2.01607E+07  1.84310E+10
       961     4800.0  2.03547E+07  1.85328E+10
       962     4805.0  2.04057E+07  1.86348E+10
       963     4810.0  2.05423E+07  1.87375E+10
       964     4815.0  2.05563E+07  1.88403E+10
       965     4820.0  2.06880E+07  1.89438E+10
       966     4825.0  2.07722E+07  1.90476E+10
       967     4830.0  2.08215E+07  1.91517E+10
       968     4835.0  2.10592E+07  1.92570E+10
       969     4840.0  2.10657E+07  1.93624E+10
       970     4845.0  2.12264E+07  1.94685E+10
       971     4850.0  2.12545E+07  1.95748E+10
       972     4855.0  2.14238E+07  1.96819E+10
       973     4860.0  2.13719E+07  1.97887E+10
       974     4865.0  2.16010E+07  1.98967E+10
       975     4870.0  2.16539E+07  2.00050E+10
       976     4875.0  2.18347E+07  2.01142E+10
       977     4880.0  2.19366E+07  2.02239E+10
       978     4885.0  2.20186E+07  2.03340E+10
       979     4890.0  2.21017E+07  2.04445E+10
       980     4895.0  2.21591E+07  2.05553E+10
       981     4900.0  2.22835E+07  2.06667E+10
       982     4905.0  2.24209E+07  2.07788E+10
       983     4910.0  2.25398E+07  2.08915E+10
       984     4915.0  2.26257E+07  2.10046E+10
       985     4920.0  2.27659E+07  2.11184E+10
       986     4925.0  2.28027E+07  2.12325E+10
       987     4930.0  2.29445E+07  2.13472E+10
       988     4935.0  2.30636E+07  2.14625E+10
       989     4940.0  2.31108E+07  2.15781E+10
       990     4945.0  2.32997E+07  2.16946E+10
       991     4950.0  2.33861E+07  2.18115E+10
       992     4955.0  2.34964E+07  2.19290E+10
       993     4960.0  2.35993E+07  2.20470E+10
       994     4965.0  2.36961E+07  2.21654E+10
       995     4970.0  2.37764E+07  2.22843E+10
       996     4975.0  2.39603E+07  2.24041E+10
       997     4980.0  2.40539E+07  2.25244E+10
       998     4985.0  2.41620E+07  2.26452E+10
       999     4990.0  2.43209E+07  2.27668E+10
      1000     4995.0  2.43733E+07  2.28887E+10
      1001     5000.0  2.44803E+07  2.30111E+10
      1002     5005.0  2.45397E+07  2.31338E+10
      1003     5010.0  2.46907E+07  2.32572E+10
      1004     5015.0  2.48320E+07  2.33814E+10
      1005     5020.0  2.49305E+07  2.35060E+10
      1006     5025.0  2.51534E+07  2.36318E+10
      1007     5030.0  2.51608E+07  2.37576E+10
      1008     5035.0  2.53122E+07  2.38842E+10
      1009     5040.0  2.54299E+07  2.40113E+10
      1010     5045.0  2.55587E+07  2.41391E+10
      1011     5050.0  2.56582E+07  2.42674E+10
      1012     5055.0  2.57400E+07  2.43961E+10
      1013     5060.0  2.58765E+07  2.45255E+10
      1014     5065.0  2.59965E+07  2.46555E+10
      1015     5070.0  2.61107E+07  2.47860E+10
      1016     5075.0  2.62123E+07  2.49171E+10
      1017     5080.0  2.64441E+07  2.50493E+10
      1018     5085.0  2.64384E+07  2.51815E+10
      1019     5090.0  2.66305E+07  2.53147E+10
      1020     5095.0  2.67695E+07  2.54485E+10
      1021     5100.0  2.69131E+07  2.55831E+10
      1022     5105.0  2.69258E+07  2.57177E+10
      1023     5110.0  2.71148E+07  2.58533E+10
      1024     5115.0  2.71601E+07  2.59891E+10
      1025     5120.0  2.73989E+07  2.61261E+10
      1026     5125.0  2.74382E+07  2.62633E+10
      1027     5130.0  2.76371E+07  2.64014E+10
      1028     5135.0  2.77151E+07  2.65400E+10
      1029     5140.0  2.78352E+07  2.66792E+10
      1030     5145.0  2.79672E+07  2.68190E+10
      1031     5150.0  2.81469E+07  2.69598E+10
      1032     5155.0  2.82013E+07  2.71008E+10
      1033     5160.0  2.84353E+07  2.72430E+10
      1034     5165.0  2.84866E+07  2.73854E+10
      1035     5170.0  2.86491E+07  2.75286E+10
      1036     5175.0  2.87403E+07  2.76723E+10
      1037     5180.0  2.88533E+07  2.78166E+10
      1038     5185.0  2.90709E+07  2.79620E+10
      1039     5190.0  2.91431E+07  2.81077E+10
      1040     5195.0  2.93222E+07  2.82543E+10
      1041     5200.0  2.93777E+07  2.84012E+10
      1042     5205.0  2.95192E+07  2.85488E+10
      1043     5210.0  2.96581E+07  2.86971E+10
      1044     5215.0  2.97770E+07  2.88459E+10
      1045     5220.0  2.99387E+07  2.89956E+10
      1046     5225.0  3.01097E+07  2.91462E+10
      1047     5230.0  3.02110E+07  2.92972E+10
      1048     5235.0  3.03913E+07  2.94492E+10
      1049     5240.0  3.05685E+07  2.96020E+10
      1050     5245.0  3.05553E+07  2.97548E+10
      1051     5250.0  3.07953E+07  2.99088E+10
      1052     5255.0  3.08898E+07  3.00632E+10
      1053     5260.0  3.10331E+07  3.02184E+10
      1054     5265.0  3.12198E+07  3.03745E+10
      1055     5270.0  3.13396E+07  3.05312E+10
      1056     5275.0  3.14698E+07  3.06885E+10
      1057     5280.0  3.15314E+07  3.08462E+10
      1058     5285.0  3.17283E+07  3.10048E+10
      1059     5290.0  3.18813E+07  3.11643E+10
      1060     5295.0  3.20397E+07  3.13245E+10
      1061     5300.0  3.21590E+07  3.14852E+10
      1062     5305.0  3.24279E+07  3.16474E+10
      1063     5310.0  3.23867E+07  3.18093E+10
      1064     5315.0  3.26347E+07  3.19725E+10
      1065     5320.0  3.27508E+07  3.21362E+10
      1066     5325.0  3.28468E+07  3.23005E+10
      1067     5330.0  3.30513E+07  3.24657E+10
      1068     5335.0  3.32260E+07  3.26319E+10
      1069     5340.0  3.34175E+07  3.27990E+10
      1070     5345.0  3.34870E+07  3.29664E+10
      1071     5350.0  3.36148E+07  3.31345E+10
      1072     5355.0  3.37309E+07  3.33031E+10
      1073     5360.0  3.39105E+07  3.34727E+10
      1074     5365.0  3.40326E+07  3.36428E+10
      1075     5370.0  3.42878E+07  3.38143E+10
      1076     5375.0  3.43813E+07  3.39862E+10
      1077     5380.0  3.45721E+07  3.41590E+10
      1078     5385.0  3.46950E+07  3.43325E+10
      1079     5390.0  3.47605E+07  3.45063E+10
      1080     5395.0  3.51026E+07  3.46818E+10
      1081     5400.0  3.50975E+07  3.48573E+10
      1082     5405.0  3.53666E+07  3.50342E+10
      1083     5410.0  3.55175E+07  3.52117E+10
      1084     5415.0  3.56808E+07  3.53901E+10
      1085     5420.0  3.57601E+07  3.55689E+10
      1086     5425.0  3.58849E+07  3.57484E+10
      1087     5430.0  3.60093E+07  3.59284E+10
      1088     5435.0  3.62624E+07  3.61097E+10
      1089     5440.0  3.63776E+07  3.62916E+10
      1090     5445.0  3.66472E+07  3.64748E+10
      1091     5450.0  3.67929E+07  3.66588E+10
      1092     5455.0  3.68736E+07  3.68432E+10
      1093     5460.0  3.70438E+07  3.70284E+10
      1094     5465.0  3.71796E+07  3.72143E+10
      1095     5470.0  3.73224E+07  3.74009E+10
      1096     5475.0  3.75533E+07  3.75887E+10
      1097     5480.0  3.77644E+07  3.77775E+10
      1098     5485.0  3.79163E+07  3.79671E+10
      1099     5490.0  3.80469E+07  3.81573E+10
      1100     5495.0  3.81578E+07  3.83481E+10
      1101     5500.0  3.83090E+07  3.85396E+10
      1102     5505.0  3.85301E+07  3.87323E+10
      1103     5510.0  3.87023E+07  3.89258E+10
      1104     5515.0  3.89493E+07  3.91206E+10
      1105     5520.0  3.90971E+07  3.93160E+10
      1106     5525.0  3.92134E+07  3.95121E+10
      1107     5530.0  3.94070E+07  3.97091E+10
      1108     5535.0  3.94679E+07  3.99065E+10
      1109     5540.0  3.96749E+07  4.01049E+10
      1110     5545.0  3.98980E+07  4.03043E+10
      1111     5550.0  4.00825E+07  4.05048E+10
      1112     5555.0  4.03282E+07  4.07064E+10
      1113     5560.0  4.04497E+07  4.09087E+10
      1114     5565.0  4.06260E+07  4.11118E+10
      1115     5570.0  4.06665E+07  4.13151E+10
      1116     5575.0  4.09112E+07  4.15197E+10
      1117     5580.0  4.10717E+07  4.17250E+10
      1118     5585.0  4.13266E+07  4.19317E+10
      1119     5590.0  4.15461E+07  4.21394E+10
      1120     5595.0  4.16969E+07  4.23479E+10
      1121     5600.0  4.18525E+07  4.25571E+10
      1122     5605.0  4.19754E+07  4.27670E+10
      1123     5610.0  4.21664E+07  4.29778E+10
      1124     5615.0  4.23161E+07  4.31894E+10
      1125     5620.0  4.25431E+07  4.34021E+10
      1126     5625.0  4.28340E+07  4.36163E+10
      1127     5630.0  4.29121E+07  4.38309E+10
      1128     5635.0  4.31575E+07  4.40467E+10
      1129     5640.0  4.33227E+07  4.42633E+10
      1130     5645.0  4.33672E+07  4.44801E+10
      1131     5650.0  4.36332E+07  4.46983E+10
      1132     5655.0  4.38691E+07  4.49176E+10
      1133     5660.0  4.41137E+07  4.51382E+10
      1134     5665.0  4.42895E+07  4.53596E+10
      1135     5670.0  4.44290E+07  4.55818E+10
      1136     5675.0  4.45942E+07  4.58048E+10
      1137     5680.0  4.47739E+07  4.60286E+10
      1138     5685.0  4.48476E+07  4.62529E+10
      1139     5690.0  4.52950E+07  4.64793E+10
      1140     5695.0  4.52968E+07  4.67058E+10
      1141     5700.0  4.56283E+07  4.69340E+10
      1142     5705.0  4.57817E+07  4.71629E+10
      1143     5710.0  4.59942E+07  4.73928E+10
      1144     5715.0  4.60470E+07  4.76231E+10
      1145     5720.0  4.63112E+07  4.78546E+10
      1146     5725.0  4.64509E+07  4.80869E+10
      1147     5730.0  4.67658E+07  4.83207E+10
      1148     5735.0  4.70115E+07  4.85558E+10
      1149     5740.0  4.71624E+07  4.87916E+10
      1150     5745.0  4.74101E+07  4.90286E+10
      1151     5750.0  4.74605E+07  4.92659E+10
      1152     5755.0  4.77206E+07  4.95045E+10
      1153     5760.0  4.79181E+07  4.97441E+10
      1154     5765.0  4.81682E+07  4.99850E+10
      1155     5770.0  4.84029E+07  5.02270E+10
      1156     5775.0  4.85411E+07  5.04697E+10
      1157     5780.0  4.88060E+07  5.07137E+10
      1158     5785.0  4.88900E+07  5.09582E+10
      1159     5790.0  4.90598E+07  5.12035E+10
      1160     5795.0  4.93202E+07  5.14501E+10
      1161     5800.0  4.96152E+07  5.16981E+10
      1162     5805.0  4.97893E+07  5.19471E+10
      1163     5810.0  5.01269E+07  5.21977E+10
      1164     5815.0  5.01940E+07  5.24487E+10
      1165     5820.0  5.04319E+07  5.27009E+10
      1166     5825.0  5.05617E+07  5.29537E+10
      1167     5830.0  5.08018E+07  5.32077E+10
      1168     5835.0  5.10699E+07  5.34630E+10
      1169     5840.0  5.11893E+07  5.37190E+10
      1170     5845.0  5.15796E+07  5.39769E+10
      1171     5850.0  5.17417E+07  5.42356E+10
      1172     5855.0  5.18790E+07  5.44950E+10
      1173     5860.0  5.20835E+07  5.47554E+10
      1174     5865.0  5.23332E+07  5.50171E+10
      1175     5870.0  5.24435E+07  5.52793E+10
      1176     5875.0  5.28292E+07  5.55434E+10
      1177     5880.0  5.30942E+07  5.58089E+10
      1178     5885.0  5.32198E+07  5.60750E+10
      1179     5890.0  5.35537E+07  5.63428E+10
      1180     5895.0  5.35680E+07  5.66106E+10
      1181     5900.0  5.38747E+07  5.68800E+10
      1182     5905.0  5.40601E+07  5.71503E+10
      1183     5910.0  5.44207E+07  5.74224E+10
      1184     5915.0  5.45959E+07  5.76954E+10
      1185     5920.0  5.47917E+07  5.79693E+10
      1186     5925.0  5.49989E+07  5.82443E+10
      1187     5930.0  5.52210E+07  5.85204E+10
      1188     5935.0  5.54594E+07  5.87977E+10
      1189     5940.0  5.56143E+07  5.90758E+10
      1190     5945.0  5.59442E+07  5.93555E+10
      1191     5950.0  5.61261E+07  5.96361E+10
      1192     5955.0  5.65190E+07  5.99187E+10
      1193     5960.0  5.66086E+07  6.02018E+10
      1194     5965.0  5.69093E+07  6.04863E+10
      1195     5970.0  5.69610E+07  6.07711E+10
      1196     5975.0  5.73255E+07  6.10578E+10
      1197     5980.0  5.75257E+07  6.13454E+10
      1198     5985.0  5.78865E+07  6.16348E+10
      1199     5990.0  5.80499E+07  6.19251E+10
      1200     5995.0  5.83248E+07  6.22167E+10
      1201     6000.0  5.84709E+07  6.25090E+10
      1202     6005.0  5.87806E+07  6.28029E+10
      1203     6010.0  5.89788E+07  6.30978E+10
      1204     6015.0  5.92100E+07  6.33939E+10
      1205     6020.0  5.94995E+07  6.36914E+10
      1206     6025.0  5.98004E+07  6.39904E+10
      1207     6030.0  5.99357E+07  6.42901E+10
      1208     6035.0  6.02551E+07  6.45913E+10
      1209     6040.0  6.04030E+07  6.48934E+10
      1210     6045.0  6.06860E+07  6.51968E+10
      1211     6050.0  6.09613E+07  6.55016E+10
      1212     6055.0  6.11512E+07  6.58073E+10
      1213     6060.0  6.15353E+07  6.61150E+10
      1214     6065.0  6.16729E+07  6.64234E+10
      1215     6070.0  6.19197E+07  6.67330E+10
      1216     6075.0  6.21913E+07  6.70439E+10
      1217     6080.0  6.25135E+07  6.73565E+10
      1218     6085.0  6.26876E+07  6.76699E+10
      1219     6090.0  6.29444E+07  6.79847E+10
      1220     6095.0  6.33022E+07  6.83012E+10
      1221     6100.0  6.35296E+07  6.86188E+10
      1222     6105.0  6.37713E+07  6.89377E+10
      1223     6110.0  6.39517E+07  6.92574E+10
      1224     6115.0  6.42323E+07  6.95786E+10
      1225     6120.0  6.44850E+07  6.99010E+10
      1226     6125.0  6.47807E+07  7.02249E+10
      1227     6130.0  6.50623E+07  7.05502E+10
      1228     6135.0  6.53228E+07  7.08769E+10
      1229     6140.0  6.55085E+07  7.12044E+10
      1230     6145.0  6.58417E+07  7.15336E+10
      1231     6150.0  6.60337E+07  7.18638E+10
      1232     6155.0  6.63531E+07  7.21955E+10
      1233     6160.0  6.66465E+07  7.25288E+10
      1234     6165.0  6.69633E+07  7.28636E+10
      1235     6170.0  6.72575E+07  7.31999E+10
      1236     6175.0  6.74447E+07  7.35371E+10
      1237     6180.0  6.77428E+07  7.38758E+10
      1238     6185.0  6.79397E+07  7.42155E+10
      1239     6190.0  6.82402E+07  7.45567E+10
      1240     6195.0  6.85274E+07  7.48994E+10
      1241     6200.0  6.87680E+07  7.52432E+10
      1242     6205.0  6.91220E+07  7.55888E+10
      1243     6210.0  6.93855E+07  7.59357E+10
      1244     6215.0  6.95960E+07  7.62837E+10
      1245     6220.0  6.99028E+07  7.66332E+10
      1246     6225.0  7.01460E+07  7.69840E+10
      1247     6230.0  7.04624E+07  7.73363E+10
      1248     6235.0  7.08296E+07  7.76904E+10
      1249     6240.0  7.11323E+07  7.80461E+10
      1250     6245.0  7.12633E+07  7.84024E+10
      1251     6250.0  7.17344E+07  7.87611E+10
      1252     6255.0  7.18056E+07  7.91201E+10
      1253     6260.0  7.21398E+07  7.94808E+10
      1254     6265.0  7.24689E+07  7.98431E+10
      1255     6270.0  7.27698E+07  8.02070E+10
      1256     6275.0  7.31113E+07  8.05725E+10
      1257     6280.0  7.33753E+07  8.09394E+10
      1258     6285.0  7.35621E+07  8.13072E+10
      1259     6290.0  7.39205E+07  8.16768E+10
      1260     6295.0  7.41100E+07  8.20474E+10
      1261     6300.0  7.45142E+07  8.24200E+10
      1262     6305.0  7.49164E+07  8.27945E+10
      1263     6310.0  7.50617E+07  8.31698E+10
      1264     6315.0  7.54587E+07  8.35471E+10
      1265     6320.0  7.57235E+07  8.39258E+10
      1266     6325.0  7.60108E+07  8.43058E+10
      1267     6330.0  7.62405E+07  8.46870E+10
      1268     6335.0  7.65978E+07  8.50700E+10
      1269     6340.0  7.69675E+07  8.54548E+10
      1270     6345.0  7.72300E+07  8.58410E+10
      1271     6350.0  7.75201E+07  8.62286E+10
      1272     6355.0  7.78300E+07  8.66177E+10
      1273     6360.0  7.81266E+07  8.70084E+10
      1274     6365.0  7.82779E+07  8.73998E+10
      1275     6370.0  7.88173E+07  8.77939E+10
      1276     6375.0  7.90318E+07  8.81890E+10
      1277     6380.0  7.94525E+07  8.85863E+10
      1278     6385.0  7.96874E+07  8.89847E+10
      1279     6390.0  8.00120E+07  8.93848E+10
      1280     6395.0  8.03382E+07  8.97865E+10
      1281     6400.0  8.05214E+07  9.01891E+10
      1282     6405.0  8.09480E+07  9.05938E+10
      1283     6410.0  8.13208E+07  9.10004E+10
      1284     6415.0  8.15736E+07  9.14083E+10
      1285     6420.0  8.20603E+07  9.18186E+10
      1286     6425.0  8.21958E+07  9.22296E+10
      1287     6430.0  8.24813E+07  9.26420E+10
      1288     6435.0  8.28205E+07  9.30561E+10
      1289     6440.0  8.30998E+07  9.34716E+10
      1290     6445.0  8.35678E+07  9.38894E+10
      1291     6450.0  8.38914E+07  9.43089E+10
      1292     6455.0  8.41351E+07  9.47295E+10
      1293     6460.0  8.45319E+07  9.51522E+10
      1294     6465.0  8.48187E+07  9.55763E+10
      1295     6470.0  8.51536E+07  9.60021E+10
      1296     6475.0  8.54192E+07  9.64292E+10
      1297     6480.0  8.58713E+07  9.68585E+10
      1298     6485.0  8.61418E+07  9.72892E+10
      1299     6490.0  8.65916E+07  9.77222E+10
      1300     6495.0  8.68650E+07  9.81565E+10
      1301     6500.0  8.71789E+07  9.85924E+10
      1302     6505.0  8.73606E+07  9.90292E+10
      1303     6510.0  8.78125E+07  9.94683E+10
      1304     6515.0  8.82435E+07  9.99095E+10
      1305     6520.0  8.84491E+07  1.00352E+11
      1306     6525.0  8.90228E+07  1.00797E+11
      1307     6530.0  8.92449E+07  1.01243E+11
      1308     6535.0  8.95762E+07  1.01691E+11
      1309     6540.0  8.97892E+07  1.02140E+11
      1310     6545.0  9.02379E+07  1.02591E+11
      1311     6550.0  9.05111E+07  1.03044E+11
      1312     6555.0  9.10043E+07  1.03499E+11
      1313     6560.0  9.13401E+07  1.03955E+11
      1314     6565.0  9.18284E+07  1.04415E+11
      1315     6570.0  9.18499E+07  1.04874E+11
      1316     6575.0  9.23971E+07  1.05336E+11
      1317     6580.0  9.26759E+07  1.05799E+11
      1318     6585.0  9.29561E+07  1.06264E+11
      1319     6590.0  9.35056E+07  1.06731E+11
      1320     6595.0  9.38696E+07  1.07201E+11
      1321     6600.0  9.42258E+07  1.07672E+11
      1322     6605.0  9.45354E+07  1.08145E+11
      1323     6610.0  9.49404E+07  1.08619E+11
      1324     6615.0  9.50626E+07  1.09095E+11
      1325     6620.0  9.55567E+07  1.09572E+11
      1326     6625.0  9.59934E+07  1.10052E+11
      1327     6630.0  9.62977E+07  1.10534E+11
      1328     6635.0  9.68429E+07  1.11018E+11
      1329     6640.0  9.71096E+07  1.11504E+11
      1330     6645.0  9.74346E+07  1.11991E+11
      1331     6650.0  9.77325E+07  1.12479E+11
      1332     6655.0  9.82225E+07  1.12971E+11
      1333     6660.0  9.85509E+07  1.13463E+11
      1334     6665.0  9.90157E+07  1.13958E+11
      1335     6670.0  9.94483E+07  1.14456E+11
      1336     6675.0  9.98189E+07  1.14955E+11
      1337     6680.0  9.99991E+07  1.15455E+11
      1338     6685.0  1.00466E+08  1.15957E+11
      1339     6690.0  1.00765E+08  1.16461E+11
      1340     6695.0  1.01169E+08  1.16967E+11
      1341     6700.0  1.01604E+08  1.17475E+11
      1342     6705.0  1.02093E+08  1.17985E+11
      1343     6710.0  1.02421E+08  1.18497E+11
      1344     6715.0  1.02751E+08  1.19011E+11
      1345     6720.0  1.03109E+08  1.19527E+11
      1346     6725.0  1.03493E+08  1.20044E+11
      1347     6730.0  1.03827E+08  1.20563E+11
      1348     6735.0  1.04429E+08  1.21085E+11
      1349     6740.0  1.04835E+08  1.21610E+11
      1350     6745.0  1.05340E+08  1.22136E+11
      1351     6750.0  1.05518E+08  1.22664E+11
      1352     6755.0  1.05967E+08  1.23194E+11
      1353     6760.0  1.06253E+08  1.23725E+11
      1354     6765.0  1.06802E+08  1.24259E+11
      1355     6770.0  1.07108E+08  1.24794E+11
      1356     6775.0  1.07561E+08  1.25332E+11
      1357     6780.0  1.08074E+08  1.25873E+11
      1358     6785.0  1.08344E+08  1.26414E+11
      1359     6790.0  1.08821E+08  1.26958E+11
      1360     6795.0  1.09092E+08  1.27504E+11
      1361     6800.0  1.09513E+08  1.28051E+11
      1362     6805.0  1.09991E+08  1.28601E+11
      1363     6810.0  1.10555E+08  1.29154E+11
      1364     6815.0  1.10793E+08  1.29708E+11
      1365     6820.0  1.11384E+08  1.30265E+11
      1366     6825.0  1.11523E+08  1.30823E+11
      1367     6830.0  1.12071E+08  1.31383E+11
      1368     6835.0  1.12432E+08  1.31945E+11
      1369     6840.0  1.12911E+08  1.32510E+11
      1370     6845.0  1.13354E+08  1.33077E+11
      1371     6850.0  1.13976E+08  1.33646E+11
      1372     6855.0  1.14245E+08  1.34218E+11
      1373     6860.0  1.14700E+08  1.34791E+11
      1374     6865.0  1.15004E+08  1.35366E+11
      1375     6870.0  1.15371E+08  1.35943E+11
      1376     6875.0  1.15920E+08  1.36523E+11
      1377     6880.0  1.16420E+08  1.37105E+11
      1378     6885.0  1.16925E+08  1.37689E+11
      1379     6890.0  1.17255E+08  1.38276E+11
      1380     6895.0  1.17641E+08  1.38864E+11
      1381     6900.0  1.18192E+08  1.39455E+11
      1382     6905.0  1.18397E+08  1.40047E+11
      1383     6910.0  1.19010E+08  1.40642E+11
      1384     6915.0  1.19563E+08  1.41240E+11
      1385     6920.0  1.19838E+08  1.41839E+11
      1386     6925.0  1.20331E+08  1.42440E+11
      1387     6930.0  1.20828E+08  1.43045E+11
      1388     6935.0  1.21169E+08  1.43650E+11
      1389     6940.0  1.21578E+08  1.44258E+11
      1390     6945.0  1.22023E+08  1.44868E+11
      1391     6950.0  1.22665E+08  1.45482E+11
      1392     6955.0  1.22970E+08  1.46097E+11
      1393     6960.0  1.23522E+08  1.46714E+11
      1394     6965.0  1.24071E+08  1.47335E+11
      1395     6970.0  1.24378E+08  1.47956E+11
      1396     6975.0  1.24732E+08  1.48580E+11
      1397     6980.0  1.25339E+08  1.49207E+11
      1398     6985.0  1.25750E+08  1.49836E+11
      1399     6990.0  1.26325E+08  1.50467E+11
      1400     6995.0  1.26866E+08  1.51102E+11
      1401     7000.0  1.27178E+08  1.51737E+11
      1402     7005.0  1.27614E+08  1.52376E+11
      1403     7010.0  1.28205E+08  1.53017E+11
      1404     7015.0  1.28434E+08  1.53659E+11
      1405     7020.0  1.29174E+08  1.54305E+11
      1406     7025.0  1.29538E+08  1.54952E+11
      1407     7030.0  1.30049E+08  1.55603E+11
      1408     7035.0  1.30499E+08  1.56255E+11
      1409     7040.0  1.31012E+08  1.56910E+11
      1410     7045.0  1.31427E+08  1.57567E+11
      1411     7050.0  1.31864E+08  1.58227E+11
      1412     7055.0  1.32426E+08  1.58889E+11
      1413     7060.0  1.32958E+08  1.59553E+11
      1414     7065.0  1.33358E+08  1.60220E+11
      1415     7070.0  1.33954E+08  1.60890E+11
      1416     7075.0  1.34412E+08  1.61562E+11
      1417     7080.0  1.34779E+08  1.62236E+11
      1418     7085.0  1.35477E+08  1.62913E+11
      1419     7090.0  1.35769E+08  1.63592E+11
      1420     7095.0  1.36351E+08  1.64274E+11
      1421     7100.0  1.36778E+08  1.64958E+11
      1422     7105.0  1.37628E+08  1.65646E+11
      1423     7110.0  1.37829E+08  1.66335E+11
      1424     7115.0  1.38339E+08  1.67027E+11
      1425     7120.0  1.38821E+08  1.67721E+11
      1426     7125.0  1.39353E+08  1.68418E+11
      1427     7130.0  1.39797E+08  1.69117E+11
      1428     7135.0  1.40561E+08  1.69819E+11
      1429     7140.0  1.40924E+08  1.70524E+11
      1430     7145.0  1.41246E+08  1.71230E+11
      1431     7150.0  1.41905E+08  1.71940E+11
      1432     7155.0  1.42364E+08  1.72652E+11
      1433     7160.0  1.42953E+08  1.73366E+11
      1434     7165.0  1.43584E+08  1.74084E+11
      1435     7170.0  1.44151E+08  1.74805E+11
      1436     7175.0  1.44537E+08  1.75528E+11
      1437     7180.0  1.45124E+08  1.76253E+11
      1438     7185.0  1.45513E+08  1.76981E+11
      1439     7190.0  1.46093E+08  1.77711E+11
      1440     7195.0  1.46529E+08  1.78444E+11
      1441     7200.0  1.47066E+08  1.79179E+11
      1442     7205.0  1.47710E+08  1.79918E+11
      1443     7210.0  1.48231E+08  1.80659E+11
      1444     7215.0  1.48843E+08  1.81403E+11
      1445     7220.0  1.49279E+08  1.82150E+11
      1446     7225.0  1.49800E+08  1.82899E+11
      1447     7230.0  1.50292E+08  1.83650E+11
      1448     7235.0  1.51014E+08  1.84405E+11
      1449     7240.0  1.51467E+08  1.85163E+11
      1450     7245.0  1.52077E+08  1.85923E+11
      1451     7250.0  1.52549E+08  1.86686E+11
      1452     7255.0  1.53145E+08  1.87451E+11
      1453     7260.0  1.53566E+08  1.88219E+11
      1454     7265.0  1.54190E+08  1.88990E+11
      1455     7270.0  1.54759E+08  1.89764E+11
      1456     7275.0  1.55418E+08  1.90541E+11
      1457     7280.0  1.55898E+08  1.91321E+11
      1458     7285.0  1.56484E+08  1.92103E+11
      1459     7290.0  1.56842E+08  1.92887E+11
      1460     7295.0  1.57434E+08  1.93674E+11
      1461     7300.0  1.58067E+08  1.94465E+11
      1462     7305.0  1.58761E+08  1.95259E+11
      1463     7310.0  1.59170E+08  1.96054E+11
      1464     7315.0  1.59979E+08  1.96854E+11
      1465     7320.0  1.60376E+08  1.97656E+11
      1466     7325.0  1.61085E+08  1.98462E+11
      1467     7330.0  1.61446E+08  1.99269E+11
      1468     7335.0  1.62148E+08  2.00080E+11
      1469     7340.0  1.62610E+08  2.00893E+11
      1470     7345.0  1.63284E+08  2.01709E+11
      1471     7350.0  1.63871E+08  2.02528E+11
      1472     7355.0  1.64501E+08  2.03351E+11
      1473     7360.0  1.65011E+08  2.04176E+11
      1474     7365.0  1.65591E+08  2.05004E+11
      1475     7370.0  1.66163E+08  2.05835E+11
      1476     7375.0  1.66679E+08  2.06668E+11
      1477     7380.0  1.67659E+08  2.07506E+11
      1478     7385.0  1.67889E+08  2.08346E+11
      1479     7390.0  1.68731E+08  2.09190E+11
      1480     7395.0  1.69106E+08  2.10035E+11
      1481     7400.0  1.69606E+08  2.10883E+11
      1482     7405.0  1.70328E+08  2.11735E+11
      1483     7410.0  1.70994E+08  2.12590E+11
      1484     7415.0  1.71579E+08  2.13448E+11
      1485     7420.0  1.72277E+08  2.14309E+11
      1486     7425.0  1.72949E+08  2.15174E+11
      1487     7430.0  1.73509E+08  2.16041E+11
      1488     7435.0  1.73912E+08  2.16911E+11
      1489     7440.0  1.74527E+08  2.17783E+11
      1490     7445.0  1.75341E+08  2.18660E+11
      1491     7450.0  1.75833E+08  2.19539E+11
      1492     7455.0  1.76567E+08  2.20422E+11
      1493     7460.0  1.77249E+08  2.21308E+11
      1494     7465.0  1.77642E+08  2.22197E+11
      1495     7470.0  1.78439E+08  2.23089E+11
      1496     7475.0  1.78889E+08  2.23983E+11
      1497     7480.0  1.79631E+08  2.24881E+11
      1498     7485.0  1.80142E+08  2.25782E+11
      1499     7490.0  1.81064E+08  2.26687E+11
      1500     7495.0  1.81600E+08  2.27595E+11
      1501     7500.0  1.82259E+08  2.28507E+11
      1502     7505.0  1.82718E+08  2.29420E+11
      1503     7510.0  1.83464E+08  2.30338E+11
      1504     7515.0  1.83993E+08  2.31258E+11
      1505     7520.0  1.84612E+08  2.32181E+11
      1506     7525.0  1.85642E+08  2.33109E+11
      1507     7530.0  1.86012E+08  2.34039E+11
      1508     7535.0  1.86832E+08  2.34973E+11
      1509     7540.0  1.87391E+08  2.35910E+11
      1510     7545.0  1.87722E+08  2.36849E+11
      1511     7550.0  1.88797E+08  2.37793E+11
      1512     7555.0  1.89164E+08  2.38738E+11
      1513     7560.0  1.90034E+08  2.39689E+11
      1514     7565.0  1.90729E+08  2.40642E+11
      1515     7570.0  1.91368E+08  2.41599E+11
      1516     7575.0  1.91858E+08  2.42558E+11
      1517     7580.0  1.92881E+08  2.43523E+11
      1518     7585.0  1.93033E+08  2.44488E+11
      1519     7590.0  1.94031E+08  2.45458E+11
      1520     7595.0  1.94579E+08  2.46431E+11
      1521     7600.0  1.95586E+08  2.47409E+11
      1522     7605.0  1.96061E+08  2.48389E+11
      1523     7610.0  1.96744E+08  2.49373E+11
      1524     7615.0  1.97417E+08  2.50360E+11
      1525     7620.0  1.97964E+08  2.51350E+11
      1526     7625.0  1.98654E+08  2.52343E+11
      1527     7630.0  1.99442E+08  2.53340E+11
      1528     7635.0  2.00387E+08  2.54342E+11
      1529     7640.0  2.00786E+08  2.55346E+11
      1530     7645.0  2.01766E+08  2.56355E+11
      1531     7650.0  2.02156E+08  2.57366E+11
      1532     7655.0  2.02875E+08  2.58380E+11
      1533     7660.0  2.03517E+08  2.59398E+11
      1534     7665.0  2.04298E+08  2.60419E+11
      1535     7670.0  2.05140E+08  2.61445E+11
      1536     7675.0  2.05880E+08  2.62474E+11
      1537     7680.0  2.06531E+08  2.63507E+11
      1538     7685.0  2.07300E+08  2.64544E+11
      1539     7690.0  2.07727E+08  2.65582E+11
      1540     7695.0  2.08599E+08  2.66625E+11
      1541     7700.0  2.09291E+08  2.67672E+11
      1542     7705.0  2.10144E+08  2.68722E+11
      1543     7710.0  2.10788E+08  2.69776E+11
      1544     7715.0  2.11571E+08  2.70834E+11
      1545     7720.0  2.12142E+08  2.71895E+11
      1546     7725.0  2.12986E+08  2.72960E+11
      1547     7730.0  2.13499E+08  2.74027E+11
      1548     7735.0  2.14485E+08  2.75100E+11
      1549     7740.0  2.15273E+08  2.76176E+11
      1550     7745.0  2.16144E+08  2.77257E+11
      1551     7750.0  2.16927E+08  2.78341E+11
      1552     7755.0  2.17445E+08  2.79429E+11
      1553     7760.0  2.18031E+08  2.80519E+11
      1554     7765.0  2.18715E+08  2.81612E+11
      1555     7770.0  2.19562E+08  2.82710E+11
      1556     7775.0  2.20392E+08  2.83812E+11
      1557     7780.0  2.21225E+08  2.84918E+11
      1558     7785.0  2.22006E+08  2.86028E+11
      1559     7790.0  2.22842E+08  2.87143E+11
      1560     7795.0  2.23369E+08  2.88259E+11
      1561     7800.0  2.24130E+08  2.89380E+11
      1562     7805.0  2.24884E+08  2.90504E+11
      1563     7810.0  2.25684E+08  2.91633E+11
      1564     7815.0  2.26587E+08  2.92766E+11
      1565     7820.0  2.27380E+08  2.93903E+11
      1566     7825.0  2.28069E+08  2.95043E+11
      1567     7830.0  2.28772E+08  2.96187E+11
      1568     7835.0  2.29568E+08  2.97335E+11
      1569     7840.0  2.30295E+08  2.98486E+11
      1570     7845.0  2.31194E+08  2.99642E+11
      1571     7850.0  2.31994E+08  3.00802E+11
      1572     7855.0  2.33043E+08  3.01967E+11
      1573     7860.0  2.33559E+08  3.03135E+11
      1574     7865.0  2.34462E+08  3.04307E+11
      1575     7870.0  2.34940E+08  3.05482E+11
      1576     7875.0  2.35873E+08  3.06662E+11
      1577     7880.0  2.36599E+08  3.07845E+11
      1578     7885.0  2.37795E+08  3.09034E+11
      1579     7890.0  2.38231E+08  3.10225E+11
      1580     7895.0  2.39412E+08  3.11422E+11
      1581     7900.0  2.39983E+08  3.12622E+11
      1582     7905.0  2.40690E+08  3.13825E+11
      1583     7910.0  2.41515E+08  3.15033E+11
      1584     7915.0  2.42333E+08  3.16244E+11
      1585     7920.0  2.43242E+08  3.17461E+11
      1586     7925.0  2.43981E+08  3.18680E+11
      1587     7930.0  2.45050E+08  3.19906E+11
      1588     7935.0  2.45798E+08  3.21135E+11
      1589     7940.0  2.46569E+08  3.22368E+11
      1590     7945.0  2.47201E+08  3.23604E+11
      1591     7950.0  2.48244E+08  3.24845E+11
      1592     7955.0  2.48894E+08  3.26089E+11
      1593     7960.0  2.49837E+08  3.27338E+11
      1594     7965.0  2.50916E+08  3.28593E+11
      1595     7970.0  2.51660E+08  3.29851E+11
      1596     7975.0  2.52207E+08  3.31112E+11
      1597     7980.0  2.53253E+08  3.32379E+11
      1598     7985.0  2.53902E+08  3.33648E+11
      1599     7990.0  2.55054E+08  3.34923E+11
      1600     7995.0  2.55882E+08  3.36203E+11
      1601     8000.0  2.56775E+08  3.37487E+11
      1602     8005.0  2.57703E+08  3.38775E+11
      1603     8010.0  2.58394E+08  3.40067E+11
      1604     8015.0  2.59160E+08  3.41363E+11
      1605     8020.0  2.60316E+08  3.42665E+11
      1606     8025.0  2.60758E+08  3.43968E+11
      1607     8030.0  2.61953E+08  3.45278E+11
      1608     8035.0  2.62868E+08  3.46592E+11
      1609     8040.0  2.63666E+08  3.47911E+11
      1610     8045.0  2.64676E+08  3.49234E+11
      1611     8050.0  2.65231E+08  3.50560E+11
      1612     8055.0  2.66335E+08  3.51892E+11
      1613     8060.0  2.66833E+08  3.53226E+11
      1614     8065.0  2.68105E+08  3.54567E+11
      1615     8070.0  2.69013E+08  3.55912E+11
      1616     8075.0  2.69969E+08  3.57262E+11
      1617     8080.0  2.70671E+08  3.58615E+11
      1618     8085.0  2.71759E+08  3.59974E+11
      1619     8090.0  2.72500E+08  3.61336E+11
      1620     8095.0  2.73378E+08  3.62703E+11
      1621     8100.0  2.74322E+08  3.64075E+11
      1622     8105.0  2.75337E+08  3.65451E+11
      1623     8110.0  2.76677E+08  3.66835E+11
      1624     8115.0  2.76973E+08  3.68220E+11
      1625     8120.0  2.78223E+08  3.69611E+11
      1626     8125.0  2.78797E+08  3.71005E+11
      1627     8130.0  2.79789E+08  3.72404E+11
      1628     8135.0  2.80762E+08  3.73808E+11
      1629     8140.0  2.82026E+08  3.75218E+11
      1630     8145.0  2.82487E+08  3.76630E+11
      1631     8150.0  2.83780E+08  3.78049E+11
      1632     8155.0  2.84485E+08  3.79471E+11
      1633     8160.0  2.85707E+08  3.80900E+11
      1634     8165.0  2.86410E+08  3.82332E+11
      1635     8170.0  2.87330E+08  3.83769E+11
      1636     8175.0  2.88458E+08  3.85211E+11
      1637     8180.0  2.89254E+08  3.86657E+11
      1638     8185.0  2.90225E+08  3.88108E+11
      1639     8190.0  2.91474E+08  3.89566E+11
      1640     8195.0  2.91912E+08  3.91025E+11
      1641     8200.0  2.92954E+08  3.92490E+11
      1642     8205.0  2.94076E+08  3.93960E+11
      1643     8210.0  2.95140E+08  3.95436E+11
      1644     8215.0  2.96222E+08  3.96917E+11
      1645     8220.0  2.97134E+08  3.98403E+11
      1646     8225.0  2.98103E+08  3.99893E+11
      1647     8230.0  2.98891E+08  4.01388E+11
      1648     8235.0  2.99906E+08  4.02887E+11
      1649     8240.0  3.00899E+08  4.04392E+11
      1650     8245.0  3.02123E+08  4.05902E+11
      1651     8250.0  3.02796E+08  4.07416E+11
      1652     8255.0  3.04104E+08  4.08937E+11
      1653     8260.0  3.04917E+08  4.10462E+11
      1654     8265.0  3.06006E+08  4.11992E+11
      1655     8270.0  3.07002E+08  4.13527E+11
      1656     8275.0  3.07830E+08  4.15066E+11
      1657     8280.0  3.09054E+08  4.16611E+11
      1658     8285.0  3.09992E+08  4.18161E+11
      1659     8290.0  3.10807E+08  4.19715E+11
      1660     8295.0  3.12001E+08  4.21275E+11
      1661     8300.0  3.13042E+08  4.22840E+11
      1662     8305.0  3.13843E+08  4.24409E+11
      1663     8310.0  3.15077E+08  4.25985E+11
      1664     8315.0  3.16137E+08  4.27566E+11
      1665     8320.0  3.17149E+08  4.29151E+11
      1666     8325.0  3.18228E+08  4.30742E+11
      1667     8330.0  3.19198E+08  4.32338E+11
      1668     8335.0  3.20304E+08  4.33940E+11
      1669     8340.0  3.21087E+08  4.35545E+11
      1670     8345.0  3.22393E+08  4.37157E+11
      1671     8350.0  3.23398E+08  4.38774E+11
      1672     8355.0  3.24375E+08  4.40396E+11
      1673     8360.0  3.25629E+08  4.42024E+11
      1674     8365.0  3.26722E+08  4.43658E+11
      1675     8370.0  3.27504E+08  4.45295E+11
      1676     8375.0  3.28455E+08  4.46938E+11
      1677     8380.0  3.29983E+08  4.48588E+11
      1678     8385.0  3.30591E+08  4.50241E+11
      1679     8390.0  3.32020E+08  4.51901E+11
      1680     8395.0  3.33145E+08  4.53566E+11
      1681     8400.0  3.33697E+08  4.55235E+11
      1682     8405.0  3.35294E+08  4.56911E+11
      1683     8410.0  3.36089E+08  4.58592E+11
      1684     8415.0  3.37460E+08  4.60279E+11
      1685     8420.0  3.38174E+08  4.61970E+11
      1686     8425.0  3.39742E+08  4.63669E+11
      1687     8430.0  3.40384E+08  4.65371E+11
      1688     8435.0  3.41814E+08  4.67080E+11
      1689     8440.0  3.42670E+08  4.68793E+11
      1690     8445.0  3.44005E+08  4.70513E+11
      1691     8450.0  3.44852E+08  4.72237E+11
      1692     8455.0  3.46269E+08  4.73969E+11
      1693     8460.0  3.47284E+08  4.75705E+11
      1694     8465.0  3.48329E+08  4.77447E+11
      1695     8470.0  3.49549E+08  4.79194E+11
      1696     8475.0  3.50501E+08  4.80947E+11
      1697     8480.0  3.51785E+08  4.82706E+11
      1698     8485.0  3.52648E+08  4.84469E+11
      1699     8490.0  3.54060E+08  4.86239E+11
      1700     8495.0  3.55188E+08  4.88015E+11
      1701     8500.0  3.56289E+08  4.89797E+11
      1702     8505.0  3.57489E+08  4.91584E+11
      1703     8510.0  3.58617E+08  4.93377E+11
      1704     8515.0  3.59716E+08  4.95176E+11
      1705     8520.0  3.60747E+08  4.96980E+11
      1706     8525.0  3.62231E+08  4.98791E+11
      1707     8530.0  3.63145E+08  5.00607E+11
      1708     8535.0  3.64522E+08  5.02429E+11
      1709     8540.0  3.65603E+08  5.04257E+11
      1710     8545.0  3.66307E+08  5.06089E+11
      1711     8550.0  3.68083E+08  5.07929E+11
      1712     8555.0  3.68564E+08  5.09772E+11
      1713     8560.0  3.70463E+08  5.11624E+11
      1714     8565.0  3.71379E+08  5.13481E+11
      1715     8570.0  3.72583E+08  5.15344E+11
      1716     8575.0  3.73840E+08  5.17213E+11
      1717     8580.0  3.75182E+08  5.19089E+11
      1718     8585.0  3.76144E+08  5.20970E+11
      1719     8590.0  3.77351E+08  5.22857E+11
      1720     8595.0  3.78585E+08  5.24750E+11
      1721     8600.0  3.79823E+08  5.26649E+11
      1722     8605.0  3.81184E+08  5.28555E+11
      1723     8610.0  3.82059E+08  5.30465E+11
      1724     8615.0  3.83753E+08  5.32384E+11
      1725     8620.0  3.84283E+08  5.34305E+11
      1726     8625.0  3.85911E+08  5.36235E+11
      1727     8630.0  3.86915E+08  5.38169E+11
      1728     8635.0  3.88452E+08  5.40112E+11
      1729     8640.0  3.89597E+08  5.42059E+11
      1730     8645.0  3.90936E+08  5.44014E+11
      1731     8650.0  3.92039E+08  5.45974E+11
      1732     8655.0  3.93219E+08  5.47940E+11
      1733     8660.0  3.94388E+08  5.49912E+11
      1734     8665.0  3.95604E+08  5.51890E+11
      1735     8670.0  3.97323E+08  5.53877E+11
      1736     8675.0  3.98053E+08  5.55867E+11
      1737     8680.0  3.99841E+08  5.57867E+11
      1738     8685.0  4.01046E+08  5.59872E+11
      1739     8690.0  4.01916E+08  5.61881E+11
      1740     8695.0  4.03223E+08  5.63897E+11
      1741     8700.0  4.04680E+08  5.65921E+11
      1742     8705.0  4.05919E+08  5.67950E+11
      1743     8710.0  4.07303E+08  5.69987E+11
      1744     8715.0  4.08502E+08  5.72029E+11
      1745     8720.0  4.09915E+08  5.74079E+11
      1746     8725.0  4.10706E+08  5.76133E+11
      1747     8730.0  4.12342E+08  5.78194E+11
      1748     8735.0  4.13622E+08  5.80262E+11
      1749     8740.0  4.14942E+08  5.82337E+11
      1750     8745.0  4.16105E+08  5.84418E+11
      1751     8750.0  4.18199E+08  5.86509E+11
      1752     8755.0  4.18849E+08  5.88603E+11
      1753     8760.0  4.20236E+08  5.90704E+11
      1754     8765.0  4.21281E+08  5.92810E+11
      1755     8770.0  4.22702E+08  5.94924E+11
      1756     8775.0  4.24205E+08  5.97045E+11
      1757     8780.0  4.25603E+08  5.99173E+11
      1758     8785.0  4.27026E+08  6.01308E+11
      1759     8790.0  4.28215E+08  6.03449E+11
      1760     8795.0  4.29640E+08  6.05597E+11
      1761     8800.0  4.30760E+08  6.07751E+11
      1762     8805.0  4.32062E+08  6.09911E+11
      1763     8810.0  4.33496E+08  6.12079E+11
      1764     8815.0  4.35043E+08  6.14254E+11
      1765     8820.0  4.36220E+08  6.16435E+11
      1766     8825.0  4.38057E+08  6.18626E+11
      1767     8830.0  4.39056E+08  6.20821E+11
      1768     8835.0  4.40199E+08  6.23022E+11
      1769     8840.0  4.41722E+08  6.25230E+11
      1770     8845.0  4.42934E+08  6.27445E+11
      1771     8850.0  4.44465E+08  6.29667E+11
      1772     8855.0  4.46296E+08  6.31899E+11
      1773     8860.0  4.47499E+08  6.34136E+11
      1774     8865.0  4.48699E+08  6.36380E+11
      1775     8870.0  4.50033E+08  6.38630E+11
      1776     8875.0  4.51614E+08  6.40888E+11
      1777     8880.0  4.52772E+08  6.43152E+11
      1778     8885.0  4.54422E+08  6.45424E+11
      1779     8890.0  4.55839E+08  6.47703E+11
      1780     8895.0  4.57327E+08  6.49990E+11
      1781     8900.0  4.58585E+08  6.52283E+11
      1782     8905.0  4.60027E+08  6.54583E+11
      1783     8910.0  4.61556E+08  6.56891E+11
      1784     8915.0  4.62228E+08  6.59202E+11
      1785     8920.0  4.64650E+08  6.61525E+11
      1786     8925.0  4.65491E+08  6.63853E+11
      1787     8930.0  4.67397E+08  6.66190E+11
      1788     8935.0  4.68863E+08  6.68534E+11
      1789     8940.0  4.70225E+08  6.70885E+11
      1790     8945.0  4.71533E+08  6.73243E+11
      1791     8950.0  4.72876E+08  6.75607E+11
      1792     8955.0  4.74306E+08  6.77979E+11
      1793     8960.0  4.75904E+08  6.80358E+11
      1794     8965.0  4.77675E+08  6.82747E+11
      1795     8970.0  4.78888E+08  6.85141E+11
      1796     8975.0  4.80493E+08  6.87543E+11
      1797     8980.0  4.81779E+08  6.89952E+11
      1798     8985.0  4.83277E+08  6.92369E+11
      1799     8990.0  4.84617E+08  6.94792E+11
      1800     8995.0  4.86558E+08  6.97225E+11
      1801     9000.0  4.87815E+08  6.99664E+11
      1802     9005.0  4.89848E+08  7.02113E+11
      1803     9010.0  4.90739E+08  7.04567E+11
      1804     9015.0  4.92532E+08  7.07029E+11
      1805     9020.0  4.93757E+08  7.09498E+11
      1806     9025.0  4.95321E+08  7.11975E+11
      1807     9030.0  4.96901E+08  7.14459E+11
      1808     9035.0  4.98404E+08  7.16951E+11
      1809     9040.0  4.99957E+08  7.19451E+11
      1810     9045.0  5.01825E+08  7.21960E+11
      1811     9050.0  5.02875E+08  7.24474E+11
      1812     9055.0  5.04814E+08  7.26999E+11
      1813     9060.0  5.05740E+08  7.29527E+11
      1814     9065.0  5.07441E+08  7.32064E+11
      1815     9070.0  5.09455E+08  7.34612E+11
      1816     9075.0  5.10986E+08  7.37167E+11
      1817     9080.0  5.12645E+08  7.39730E+11
      1818     9085.0  5.13918E+08  7.42299E+11
      1819     9090.0  5.15641E+08  7.44878E+11
      1820     9095.0  5.16857E+08  7.47462E+11
      1821     9100.0  5.18736E+08  7.50056E+11
      1822     9105.0  5.20234E+08  7.52657E+11
      1823     9110.0  5.22232E+08  7.55268E+11
      1824     9115.0  5.23669E+08  7.57886E+11
      1825     9120.0  5.25306E+08  7.60513E+11
      1826     9125.0  5.26692E+08  7.63146E+11
      1827     9130.0  5.27934E+08  7.65786E+11
      1828     9135.0  5.29723E+08  7.68435E+11
      1829     9140.0  5.31475E+08  7.71092E+11
      1830     9145.0  5.33295E+08  7.73758E+11
      1831     9150.0  5.34775E+08  7.76432E+11
      1832     9155.0  5.36596E+08  7.79115E+11
      1833     9160.0  5.38074E+08  7.81806E+11
      1834     9165.0  5.39673E+08  7.84504E+11
      1835     9170.0  5.40932E+08  7.87209E+11
      1836     9175.0  5.43032E+08  7.89924E+11
      1837     9180.0  5.44543E+08  7.92647E+11
      1838     9185.0  5.46435E+08  7.95379E+11
      1839     9190.0  5.48291E+08  7.98120E+11
      1840     9195.0  5.49615E+08  8.00868E+11
      1841     9200.0  5.51055E+08  8.03624E+11
      1842     9205.0  5.52574E+08  8.06386E+11
      1843     9210.0  5.54578E+08  8.09159E+11
      1844     9215.0  5.56537E+08  8.11942E+11
      1845     9220.0  5.57697E+08  8.14730E+11
      1846     9225.0  5.60226E+08  8.17532E+11
      1847     9230.0  5.61398E+08  8.20339E+11
      1848     9235.0  5.62749E+08  8.23152E+11
      1849     9240.0  5.64873E+08  8.25977E+11
      1850     9245.0  5.66477E+08  8.28809E+11
      1851     9250.0  5.68018E+08  8.31649E+11
      1852     9255.0  5.69887E+08  8.34499E+11
      1853     9260.0  5.72050E+08  8.37359E+11
      1854     9265.0  5.73414E+08  8.40226E+11
      1855     9270.0  5.75178E+08  8.43102E+11
      1856     9275.0  5.76542E+08  8.45985E+11
      1857     9280.0  5.78875E+08  8.48879E+11
      1858     9285.0  5.79541E+08  8.51777E+11
      1859     9290.0  5.82442E+08  8.54689E+11
      1860     9295.0  5.83865E+08  8.57608E+11
      1861     9300.0  5.85594E+08  8.60536E+11
      1862     9305.0  5.87369E+08  8.63473E+11
      1863     9310.0  5.89143E+08  8.66419E+11
      1864     9315.0  5.90541E+08  8.69371E+11
      1865     9320.0  5.92650E+08  8.72335E+11
      1866     9325.0  5.94486E+08  8.75307E+11
      1867     9330.0  5.96097E+08  8.78288E+11
      1868     9335.0  5.98221E+08  8.81279E+11
      1869     9340.0  5.99597E+08  8.84277E+11
      1870     9345.0  6.01700E+08  8.87285E+11
      1871     9350.0  6.03419E+08  8.90302E+11
      1872     9355.0  6.04890E+08  8.93327E+11
      1873     9360.0  6.07279E+08  8.96363E+11
      1874     9365.0  6.09018E+08  8.99408E+11
      1875     9370.0  6.11017E+08  9.02463E+11
      1876     9375.0  6.12313E+08  9.05525E+11
      1877     9380.0  6.14461E+08  9.08597E+11
      1878     9385.0  6.16034E+08  9.11677E+11
      1879     9390.0  6.17973E+08  9.14767E+11
      1880     9395.0  6.19875E+08  9.17867E+11
      1881     9400.0  6.21705E+08  9.20975E+11
      1882     9405.0  6.23586E+08  9.24093E+11
      1883     9410.0  6.25051E+08  9.27218E+11
      1884     9415.0  6.27868E+08  9.30358E+11
      1885     9420.0  6.28785E+08  9.33502E+11
      1886     9425.0  6.30952E+08  9.36656E+11
      1887     9430.0  6.32734E+08  9.39820E+11
      1888     9435.0  6.35046E+08  9.42995E+11
      1889     9440.0  6.36761E+08  9.46179E+11
      1890     9445.0  6.38697E+08  9.49372E+11
      1891     9450.0  6.40658E+08  9.52576E+11
      1892     9455.0  6.42164E+08  9.55787E+11
      1893     9460.0  6.44378E+08  9.59008E+11
      1894     9465.0  6.46183E+08  9.62239E+11
      1895     9470.0  6.48297E+08  9.65481E+11
      1896     9475.0  6.49882E+08  9.68730E+11
      1897     9480.0  6.52465E+08  9.71993E+11
      1898     9485.0  6.53690E+08  9.75261E+11
      1899     9490.0  6.55858E+08  9.78540E+11
      1900     9495.0  6.57733E+08  9.81829E+11
      1901     9500.0  6.59870E+08  9.85128E+11
      1902     9505.0  6.61690E+08  9.88437E+11
      1903     9510.0  6.63858E+08  9.91756E+11
      1904     9515.0  6.65709E+08  9.95085E+11
      1905     9520.0  6.67704E+08  9.98423E+11
      1906     9525.0  6.69644E+08  1.00177E+12
      1907     9530.0  6.71458E+08  1.00513E+12
      1908     9535.0  6.73700E+08  1.00850E+12
      1909     9540.0  6.75354E+08  1.01187E+12
      1910     9545.0  6.77417E+08  1.01526E+12
      1911     9550.0  6.79576E+08  1.01866E+12
      1912     9555.0  6.81549E+08  1.02207E+12
      1913     9560.0  6.83670E+08  1.02548E+12
      1914     9565.0  6.85572E+08  1.02891E+12
      1915     9570.0  6.87367E+08  1.03235E+12
      1916     9575.0  6.89845E+08  1.03580E+12
      1917     9580.0  6.91390E+08  1.03926E+12
      1918     9585.0  6.94330E+08  1.04273E+12
      1919     9590.0  6.95671E+08  1.04621E+12
      1920     9595.0  6.97872E+08  1.04970E+12
      1921     9600.0  6.99534E+08  1.05319E+12
      1922     9605.0  7.02177E+08  1.05670E+12
      1923     9610.0  7.03854E+08  1.06022E+12
      1924     9615.0  7.06345E+08  1.06375E+12
      1925     9620.0  7.08163E+08  1.06730E+12
      1926     9625.0  7.10120E+08  1.07085E+12
      1927     9630.0  7.12199E+08  1.07441E+12
      1928     9635.0  7.14227E+08  1.07798E+12
      1929     9640.0  7.16729E+08  1.08156E+12
      1930     9645.0  7.18548E+08  1.08515E+12
      1931     9650.0  7.20572E+08  1.08876E+12
      1932     9655.0  7.22957E+08  1.09237E+12
      1933     9660.0  7.24550E+08  1.09600E+12
      1934     9665.0  7.27096E+08  1.09963E+12
      1935     9670.0  7.29541E+08  1.10328E+12
      1936     9675.0  7.30901E+08  1.10693E+12
      1937     9680.0  7.33678E+08  1.11060E+12
      1938     9685.0  7.35737E+08  1.11428E+12
      1939     9690.0  7.37674E+08  1.11797E+12
      1940     9695.0  7.39861E+08  1.12167E+12
      1941     9700.0  7.41793E+08  1.12538E+12
      1942     9705.0  7.44298E+08  1.12910E+12
      1943     9710.0  7.46467E+08  1.13283E+12
      1944     9715.0  7.48440E+08  1.13657E+12
      1945     9720.0  7.51173E+08  1.14033E+12
      1946     9725.0  7.52787E+08  1.14409E+12
      1947     9730.0  7.54869E+08  1.14787E+12
      1948     9735.0  7.57463E+08  1.15165E+12
      1949     9740.0  7.59472E+08  1.15545E+12
      1950     9745.0  7.61429E+08  1.15926E+12
      1951     9750.0  7.64239E+08  1.16308E+12
      1952     9755.0  7.66460E+08  1.16691E+12
      1953     9760.0  7.68280E+08  1.17075E+12
      1954     9765.0  7.70885E+08  1.17461E+12
      1955     9770.0  7.72436E+08  1.17847E+12
      1956     9775.0  7.75387E+08  1.18235E+12
      1957     9780.0  7.76972E+08  1.18623E+12
      1958     9785.0  7.80172E+08  1.19013E+12
      1959     9790.0  7.81821E+08  1.19404E+12
      1960     9795.0  7.84175E+08  1.19796E+12
      1961     9800.0  7.86337E+08  1.20189E+12
      1962     9805.0  7.88492E+08  1.20584E+12
      1963     9810.0  7.91026E+08  1.20979E+12
      1964     9815.0  7.93156E+08  1.21376E+12
      1965     9820.0  7.95813E+08  1.21774E+12
      1966     9825.0  7.97909E+08  1.22173E+12
      1967     9830.0  8.00269E+08  1.22573E+12
      1968     9835.0  8.02474E+08  1.22974E+12
      1969     9840.0  8.04873E+08  1.23376E+12
      1970     9845.0  8.06645E+08  1.23780E+12
      1971     9850.0  8.09549E+08  1.24185E+12
      1972     9855.0  8.11766E+08  1.24590E+12
      1973     9860.0  8.14675E+08  1.24998E+12
      1974     9865.0  8.16537E+08  1.25406E+12
      1975     9870.0  8.18710E+08  1.25815E+12
      1976     9875.0  8.21319E+08  1.26226E+12
      1977     9880.0  8.23684E+08  1.26638E+12
      1978     9885.0  8.25763E+08  1.27051E+12
      1979     9890.0  8.28577E+08  1.27465E+12
      1980     9895.0  8.30620E+08  1.27880E+12
      1981     9900.0  8.33130E+08  1.28297E+12
      1982     9905.0  8.35500E+08  1.28715E+12
      1983     9910.0  8.38175E+08  1.29134E+12
      1984     9915.0  8.39481E+08  1.29554E+12
      1985     9920.0  8.42789E+08  1.29975E+12
      1986     9925.0  8.44895E+08  1.30397E+12
      1987     9930.0  8.48049E+08  1.30821E+12
      1988     9935.0  8.50077E+08  1.31246E+12
      1989     9940.0  8.52652E+08  1.31673E+12
      1990     9945.0  8.55204E+08  1.32100E+12
      1991     9950.0  8.56572E+08  1.32529E+12
      1992     9955.0  8.60094E+08  1.32959E+12
      1993     9960.0  8.62231E+08  1.33390E+12
      1994     9965.0  8.64618E+08  1.33822E+12
      1995     9970.0  8.67378E+08  1.34256E+12
      1996     9975.0  8.69870E+08  1.34691E+12
      1997     9980.0  8.72083E+08  1.35127E+12
      1998     9985.0  8.74647E+08  1.35564E+12
      1999     9990.0  8.76808E+08  1.36002E+12
      2000     9995.0  8.79814E+08  1.36442E+12
      2001    10000.0  8.81725E+08  1.36883E+12
      2002    10005.0  8.84981E+08  1.37326E+12
      2003    10010.0  8.87593E+08  1.37770E+12
      2004    10015.0  8.89751E+08  1.38214E+12
      2005    10020.0  8.92228E+08  1.38661E+12
      2006    10025.0  8.94717E+08  1.39108E+12
      2007    10030.0  8.97393E+08  1.39557E+12
      2008    10035.0  8.99738E+08  1.40006E+12
      2009    10040.0  9.03203E+08  1.40458E+12
      2010    10045.0  9.04666E+08  1.40910E+12
      2011    10050.0  9.07847E+08  1.41364E+12
      2012    10055.0  9.10092E+08  1.41819E+12
      2013    10060.0  9.12640E+08  1.42276E+12
      2014    10065.0  9.14810E+08  1.42733E+12
      2015    10070.0  9.18213E+08  1.43192E+12
      2016    10075.0  9.20403E+08  1.43652E+12
      2017    10080.0  9.23910E+08  1.44114E+12
      2018    10085.0  9.26042E+08  1.44577E+12
      2019    10090.0  9.28457E+08  1.45042E+12
      2020    10095.0  9.30933E+08  1.45507E+12
      2021    10100.0  9.33421E+08  1.45974E+12
      2022    10105.0  9.36482E+08  1.46442E+12
      2023    10110.0  9.38783E+08  1.46911E+12
      2024    10115.0  9.42300E+08  1.47383E+12
      2025    10120.0  9.44342E+08  1.47855E+12
      2026    10125.0  9.47365E+08  1.48328E+12
      2027    10130.0  9.49391E+08  1.48803E+12
      2028    10135.0  9.52532E+08  1.49279E+12
      2029    10140.0  9.54544E+08  1.49757E+12
      2030    10145.0  9.57986E+08  1.50236E+12
      2031    10150.0  9.60693E+08  1.50716E+12
      2032    10155.0  9.63278E+08  1.51198E+12
      2033    10160.0  9.66119E+08  1.51681E+12
      2034    10165.0  9.68553E+08  1.52165E+12
      2035    10170.0  9.70896E+08  1.52650E+12
      2036    10175.0  9.73980E+08  1.53137E+12
      2037    10180.0  9.76996E+08  1.53626E+12
      2038    10185.0  9.79827E+08  1.54116E+12
      2039    10190.0  9.82428E+08  1.54607E+12
      2040    10195.0  9.85645E+08  1.55100E+12
      2041    10200.0  9.87945E+08  1.55594E+12
      2042    10205.0  9.90408E+08  1.56089E+12
      2043    10210.0  9.93186E+08  1.56586E+12
      2044    10215.0  9.96266E+08  1.57084E+12
      2045    10220.0  9.98811E+08  1.57583E+12
      2046    10225.0  1.00251E+09  1.58084E+12
      2047    10230.0  1.00490E+09  1.58587E+12
      2048    10235.0  1.00739E+09  1.59091E+12
      2049    10240.0  1.01039E+09  1.59596E+12
      2050    10245.0  1.01294E+09  1.60102E+12
      2051    10250.0  1.01606E+09  1.60610E+12
      2052    10255.0  1.01862E+09  1.61120E+12
      2053    10260.0  1.02194E+09  1.61631E+12
      2054    10265.0  1.02482E+09  1.62143E+12
      2055    10270.0  1.02768E+09  1.62657E+12
      2056    10275.0  1.02999E+09  1.63172E+12
      2057    10280.0  1.03346E+09  1.63688E+12
      2058    10285.0  1.03546E+09  1.64206E+12
      2059    10290.0  1.03911E+09  1.64726E+12
      2060    10295.0  1.04224E+09  1.65247E+12
      2061    10300.0  1.04455E+09  1.65769E+12
      2062    10305.0  1.04828E+09  1.66293E+12
      2063    10310.0  1.05017E+09  1.66818E+12
      2064    10315.0  1.05403E+09  1.67345E+12
      2065    10320.0  1.05589E+09  1.67873E+12
      2066    10325.0  1.05947E+09  1.68403E+12
      2067    10330.0  1.06251E+09  1.68934E+12
      2068    10335.0  1.06570E+09  1.69467E+12
      2069    10340.0  1.06823E+09  1.70001E+12
      2070    10345.0  1.07166E+09  1.70537E+12
      2071    10350.0  1.07447E+09  1.71074E+12
      2072    10355.0  1.07685E+09  1.71613E+12
      2073    10360.0  1.08026E+09  1.72153E+12
      2074    10365.0  1.08337E+09  1.72695E+12
      2075    10370.0  1.08668E+09  1.73238E+12
      2076    10375.0  1.08950E+09  1.73783E+12
      2077    10380.0  1.09236E+09  1.74329E+12
      2078    10385.0  1.09548E+09  1.74877E+12
      2079    10390.0  1.09820E+09  1.75426E+12
      2080    10395.0  1.10147E+09  1.75976E+12
      2081    10400.0  1.10477E+09  1.76529E+12
      2082    10405.0  1.10741E+09  1.77083E+12
      2083    10410.0  1.11038E+09  1.77638E+12
      2084    10415.0  1.11400E+09  1.78195E+12
      2085    10420.0  1.11674E+09  1.78753E+12
      2086    10425.0  1.11982E+09  1.79313E+12
      2087    10430.0  1.12279E+09  1.79874E+12
      2088    10435.0  1.12595E+09  1.80437E+12
      2089    10440.0  1.12979E+09  1.81002E+12
      2090    10445.0  1.13215E+09  1.81568E+12
      2091    10450.0  1.13642E+09  1.82137E+12
      2092    10455.0  1.13837E+09  1.82706E+12
      2093    10460.0  1.14180E+09  1.83277E+12
      2094    10465.0  1.14457E+09  1.83849E+12
      2095    10470.0  1.14855E+09  1.84423E+12
      2096    10475.0  1.15093E+09  1.84999E+12
      2097    10480.0  1.15445E+09  1.85576E+12
      2098    10485.0  1.15804E+09  1.86155E+12
      2099    10490.0  1.16072E+09  1.86735E+12
      2100    10495.0  1.16362E+09  1.87317E+12
      2101    10500.0  1.16754E+09  1.87901E+12
      2102    10505.0  1.17042E+09  1.88486E+12
      2103    10510.0  1.17342E+09  1.89073E+12
      2104    10515.0  1.17725E+09  1.89661E+12
      2105    10520.0  1.18076E+09  1.90252E+12
      2106    10525.0  1.18329E+09  1.90843E+12
      2107    10530.0  1.18596E+09  1.91436E+12
      2108    10535.0  1.19050E+09  1.92032E+12
      2109    10540.0  1.19264E+09  1.92628E+12
      2110    10545.0  1.19643E+09  1.93226E+12
      2111    10550.0  1.19969E+09  1.93826E+12
      2112    10555.0  1.20343E+09  1.94428E+12
      2113    10560.0  1.20597E+09  1.95031E+12
      2114    10565.0  1.20981E+09  1.95636E+12
      2115    10570.0  1.21297E+09  1.96242E+12
      2116    10575.0  1.21543E+09  1.96850E+12
      2117    10580.0  1.21947E+09  1.97460E+12
      2118    10585.0  1.22312E+09  1.98071E+12
      2119    10590.0  1.22653E+09  1.98684E+12
      2120    10595.0  1.22980E+09  1.99299E+12
      2121    10600.0  1.23329E+09  1.99916E+12
      2122    10605.0  1.23610E+09  2.00534E+12
      2123    10610.0  1.24023E+09  2.01154E+12
      2124    10615.0  1.24250E+09  2.01775E+12
      2125    10620.0  1.24722E+09  2.02399E+12
      2126    10625.0  1.24964E+09  2.03024E+12
      2127    10630.0  1.25341E+09  2.03651E+12
      2128    10635.0  1.25655E+09  2.04279E+12
      2129    10640.0  1.26053E+09  2.04909E+12
      2130    10645.0  1.26353E+09  2.05541E+12
      2131    10650.0  1.26713E+09  2.06174E+12
      2132    10655.0  1.27044E+09  2.06810E+12
      2133    10660.0  1.27374E+09  2.07446E+12
      2134    10665.0  1.27740E+09  2.08085E+12
      2135    10670.0  1.28072E+09  2.08726E+12
      2136    10675.0  1.28473E+09  2.09368E+12
      2137    10680.0  1.28760E+09  2.10012E+12
      2138    10685.0  1.29108E+09  2.10657E+12
      2139    10690.0  1.29520E+09  2.11305E+12
      2140    10695.0  1.29847E+09  2.11954E+12
      2141    10700.0  1.30173E+09  2.12605E+12
      2142    10705.0  1.30593E+09  2.13258E+12
      2143    10710.0  1.30885E+09  2.13912E+12
      2144    10715.0  1.31277E+09  2.14569E+12
      2145    10720.0  1.31620E+09  2.15227E+12
      2146    10725.0  1.31998E+09  2.15887E+12
      2147    10730.0  1.32301E+09  2.16548E+12
      2148    10735.0  1.32702E+09  2.17212E+12
      2149    10740.0  1.33041E+09  2.17877E+12
      2150    10745.0  1.33433E+09  2.18544E+12
      2151    10750.0  1.33718E+09  2.19213E+12
      2152    10755.0  1.34147E+09  2.19884E+12
      2153    10760.0  1.34507E+09  2.20556E+12
      2154    10765.0  1.34852E+09  2.21230E+12
      2155    10770.0  1.35205E+09  2.21906E+12
      2156    10775.0  1.35580E+09  2.22584E+12
      2157    10780.0  1.35912E+09  2.23264E+12
      2158    10785.0  1.36333E+09  2.23945E+12
      2159    10790.0  1.36702E+09  2.24629E+12
      2160    10795.0  1.37069E+09  2.25314E+12
      2161    10800.0  1.37446E+09  2.26002E+12
      2162    10805.0  1.37735E+09  2.26690E+12
      2163    10810.0  1.38219E+09  2.27381E+12
      2164    10815.0  1.38505E+09  2.28074E+12
      2165    10820.0  1.38900E+09  2.28768E+12
      2166    10825.0  1.39304E+09  2.29465E+12
      2167    10830.0  1.39643E+09  2.30163E+12
      2168    10835.0  1.40049E+09  2.30863E+12
      2169    10840.0  1.40425E+09  2.31565E+12
      2170    10845.0  1.40813E+09  2.32270E+12
      2171    10850.0  1.41146E+09  2.32975E+12
      2172    10855.0  1.41542E+09  2.33683E+12
      2173    10860.0  1.41947E+09  2.34393E+12
      2174    10865.0  1.42344E+09  2.35104E+12
      2175    10870.0  1.42682E+09  2.35818E+12
      2176    10875.0  1.43094E+09  2.36533E+12
      2177    10880.0  1.43470E+09  2.37251E+12
      2178    10885.0  1.43806E+09  2.37970E+12
      2179    10890.0  1.44230E+09  2.38691E+12
      2180    10895.0  1.44623E+09  2.39414E+12
      2181    10900.0  1.44959E+09  2.40139E+12
      2182    10905.0  1.45451E+09  2.40866E+12
      2183    10910.0  1.45742E+09  2.41595E+12
      2184    10915.0  1.46170E+09  2.42326E+12
      2185    10920.0  1.46517E+09  2.43058E+12
      2186    10925.0  1.46964E+09  2.43793E+12
      2187    10930.0  1.47367E+09  2.44530E+12
      2188    10935.0  1.47744E+09  2.45269E+12
      2189    10940.0  1.48145E+09  2.46009E+12
      2190    10945.0  1.48570E+09  2.46752E+12
      2191    10950.0  1.48876E+09  2.47496E+12
      2192    10955.0  1.49383E+09  2.48243E+12
      2193    10960.0  1.49699E+09  2.48992E+12
      2194    10965.0  1.50126E+09  2.49742E+12
      2195    10970.0  1.50552E+09  2.50495E+12
      2196    10975.0  1.50886E+09  2.51250E+12
      2197    10980.0  1.51387E+09  2.52007E+12
      2198    10985.0  1.51709E+09  2.52765E+12
      2199    10990.0  1.52103E+09  2.53526E+12
      2200    10995.0  1.52556E+09  2.54288E+12
      2201    11000.0  1.52888E+09  2.55053E+12
      2202    11005.0  1.53266E+09  2.55819E+12
      2203    11010.0  1.53825E+09  2.56588E+12
      2204    11015.0  1.54212E+09  2.57359E+12
      2205    11020.0  1.54577E+09  2.58132E+12
      2206    11025.0  1.54969E+09  2.58907E+12
      2207    11030.0  1.55418E+09  2.59684E+12
      2208    11035.0  1.55778E+09  2.60463E+12
      2209    11040.0  1.56309E+09  2.61245E+12
      2210    11045.0  1.56626E+09  2.62028E+12
      2211    11050.0  1.57099E+09  2.62813E+12
      2212    11055.0  1.57387E+09  2.63600E+12
      2213    11060.0  1.57913E+09  2.64390E+12
      2214    11065.0  1.58282E+09  2.65181E+12
      2215    11070.0  1.58649E+09  2.65974E+12
      2216    11075.0  1.59175E+09  2.66770E+12
      2217    11080.0  1.59581E+09  2.67568E+12
      2218    11085.0  1.60029E+09  2.68368E+12
      2219    11090.0  1.60439E+09  2.69171E+12
      2220    11095.0  1.60882E+09  2.69975E+12
      2221    11100.0  1.61195E+09  2.70781E+12
      2222    11105.0  1.61685E+09  2.71589E+12
      2223    11110.0  1.62078E+09  2.72400E+12
      2224    11115.0  1.62591E+09  2.73213E+12
      2225    11120.0  1.62972E+09  2.74028E+12
      2226    11125.0  1.63430E+09  2.74845E+12
      2227    11130.0  1.63845E+09  2.75664E+12
      2228    11135.0  1.64267E+09  2.76485E+12
      2229    11140.0  1.64657E+09  2.77309E+12
      2230    11145.0  1.65062E+09  2.78134E+12
      2231    11150.0  1.65616E+09  2.78962E+12
      2232    11155.0  1.65984E+09  2.79792E+12
      2233    11160.0  1.66523E+09  2.80624E+12
      2234    11165.0  1.66873E+09  2.81459E+12
      2235    11170.0  1.67318E+09  2.82295E+12
      2236    11175.0  1.67640E+09  2.83134E+12
      2237    11180.0  1.68229E+09  2.83975E+12
      2238    11185.0  1.68665E+09  2.84818E+12
      2239    11190.0  1.69075E+09  2.85663E+12
      2240    11195.0  1.69514E+09  2.86511E+12
      2241    11200.0  1.70016E+09  2.87361E+12
      2242    11205.0  1.70414E+09  2.88213E+12
      2243    11210.0  1.70855E+09  2.89067E+12
      2244    11215.0  1.71343E+09  2.89924E+12
      2245    11220.0  1.71755E+09  2.90783E+12
      2246    11225.0  1.72151E+09  2.91644E+12
      2247    11230.0  1.72759E+09  2.92508E+12
      2248    11235.0  1.73121E+09  2.93373E+12
      2249    11240.0  1.73552E+09  2.94241E+12
      2250    11245.0  1.73990E+09  2.95111E+12
      2251    11250.0  1.74449E+09  2.95983E+12
      2252    11255.0  1.74915E+09  2.96858E+12
      2253    11260.0  1.75352E+09  2.97734E+12
      2254    11265.0  1.75927E+09  2.98614E+12
      2255    11270.0  1.76319E+09  2.99496E+12
      2256    11275.0  1.76797E+09  3.00380E+12
      2257    11280.0  1.77218E+09  3.01266E+12
      2258    11285.0  1.77715E+09  3.02154E+12
      2259    11290.0  1.78100E+09  3.03045E+12
      2260    11295.0  1.78651E+09  3.03938E+12
      2261    11300.0  1.79094E+09  3.04834E+12
      2262    11305.0  1.79594E+09  3.05732E+12
      2263    11310.0  1.79985E+09  3.06631E+12
      2264    11315.0  1.80538E+09  3.07534E+12
      2265    11320.0  1.80890E+09  3.08439E+12
      2266    11325.0  1.81399E+09  3.09346E+12
      2267    11330.0  1.81928E+09  3.10255E+12
      2268    11335.0  1.82344E+09  3.11167E+12
      2269    11340.0  1.82923E+09  3.12082E+12
      2270    11345.0  1.83307E+09  3.12998E+12
      2271    11350.0  1.83842E+09  3.13917E+12
      2272    11355.0  1.84299E+09  3.14839E+12
      2273    11360.0  1.84719E+09  3.15762E+12
      2274    11365.0  1.85220E+09  3.16688E+12
      2275    11370.0  1.85736E+09  3.17617E+12
      2276    11375.0  1.86211E+09  3.18548E+12
      2277    11380.0  1.86705E+09  3.19482E+12
      2278    11385.0  1.87228E+09  3.20418E+12
      2279    11390.0  1.87620E+09  3.21356E+12
      2280    11395.0  1.88125E+09  3.22297E+12
      2281    11400.0  1.88634E+09  3.23240E+12
      2282    11405.0  1.89109E+09  3.24185E+12
      2283    11410.0  1.89649E+09  3.25134E+12
      2284    11415.0  1.90033E+09  3.26084E+12
      2285    11420.0  1.90625E+09  3.27037E+12
      2286    11425.0  1.91065E+09  3.27992E+12
      2287    11430.0  1.91498E+09  3.28950E+12
      2288    11435.0  1.92094E+09  3.29910E+12
      2289    11440.0  1.92543E+09  3.30873E+12
      2290    11445.0  1.93050E+09  3.31838E+12
      2291    11450.0  1.93647E+09  3.32806E+12
      2292    11455.0  1.94104E+09  3.33777E+12
      2293    11460.0  1.94573E+09  3.34750E+12
      2294    11465.0  1.95056E+09  3.35725E+12
      2295    11470.0  1.95539E+09  3.36703E+12
      2296    11475.0  1.96121E+09  3.37683E+12
      2297    11480.0  1.96495E+09  3.38666E+12
      2298    11485.0  1.97158E+09  3.39652E+12
      2299    11490.0  1.97570E+09  3.40639E+12
      2300    11495.0  1.98091E+09  3.41630E+12
      2301    11500.0  1.98583E+09  3.42623E+12
      2302    11505.0  1.99173E+09  3.43619E+12
      2303    11510.0  1.99581E+09  3.44617E+12
      2304    11515.0  2.00159E+09  3.45617E+12
      2305    11520.0  2.00703E+09  3.46621E+12
      2306    11525.0  2.01201E+09  3.47627E+12
      2307    11530.0  2.01668E+09  3.48635E+12
      2308    11535.0  2.02212E+09  3.49646E+12
      2309    11540.0  2.02728E+09  3.50660E+12
      2310    11545.0  2.03218E+09  3.51676E+12
      2311    11550.0  2.03746E+09  3.52695E+12
      2312    11555.0  2.04362E+09  3.53717E+12
      2313    11560.0  2.04776E+09  3.54740E+12
      2314    11565.0  2.05319E+09  3.55767E+12
      2315    11570.0  2.05944E+09  3.56797E+12
      2316    11575.0  2.06329E+09  3.57828E+12
      2317    11580.0  2.06917E+09  3.58863E+12
      2318    11585.0  2.07391E+09  3.59900E+12
      2319    11590.0  2.08062E+09  3.60940E+12
      2320    11595.0  2.08516E+09  3.61983E+12
      2321    11600.0  2.09101E+09  3.63028E+12
      2322    11605.0  2.09585E+09  3.64076E+12
      2323    11610.0  2.10137E+09  3.65127E+12
      2324    11615.0  2.10592E+09  3.66180E+12
      2325    11620.0  2.11229E+09  3.67236E+12
      2326    11625.0  2.11746E+09  3.68295E+12
      2327    11630.0  2.12259E+09  3.69356E+12
      2328    11635.0  2.12824E+09  3.70420E+12
      2329    11640.0  2.13357E+09  3.71487E+12
      2330    11645.0  2.13940E+09  3.72557E+12
      2331    11650.0  2.14408E+09  3.73629E+12
      2332    11655.0  2.14984E+09  3.74704E+12
      2333    11660.0  2.15570E+09  3.75781E+12
      2334    11665.0  2.16037E+09  3.76862E+12
      2335    11670.0  2.16568E+09  3.77944E+12
      2336    11675.0  2.17272E+09  3.79031E+12
      2337    11680.0  2.17701E+09  3.80119E+12
      2338    11685.0  2.18290E+09  3.81211E+12
      2339    11690.0  2.18849E+09  3.82305E+12
      2340    11695.0  2.19449E+09  3.83402E+12
      2341    11700.0  2.19976E+09  3.84502E+12
      2342    11705.0  2.20513E+09  3.85605E+12
      2343    11710.0  2.21131E+09  3.86710E+12
      2344    11715.0  2.21653E+09  3.87819E+12
      2345    11720.0  2.22161E+09  3.88929E+12
      2346    11725.0  2.22850E+09  3.90044E+12
      2347    11730.0  2.23343E+09  3.91160E+12
      2348    11735.0  2.23811E+09  3.92279E+12
      2349    11740.0  2.24514E+09  3.93402E+12
      2350    11745.0  2.25057E+09  3.94527E+12
      2351    11750.0  2.25580E+09  3.95655E+12
      2352    11755.0  2.26126E+09  3.96786E+12
      2353    11760.0  2.26851E+09  3.97920E+12
      2354    11765.0  2.27234E+09  3.99056E+12
      2355    11770.0  2.27946E+09  4.00196E+12
      2356    11775.0  2.28452E+09  4.01338E+12
      2357    11780.0  2.29091E+09  4.02484E+12
      2358    11785.0  2.29538E+09  4.03631E+12
      2359    11790.0  2.30231E+09  4.04783E+12
      2360    11795.0  2.30890E+09  4.05937E+12
      2361    11800.0  2.31339E+09  4.07094E+12
      2362    11805.0  2.31944E+09  4.08253E+12
      2363    11810.0  2.32588E+09  4.09416E+12
      2364    11815.0  2.33084E+09  4.10582E+12
      2365    11820.0  2.33722E+09  4.11750E+12
      2366    11825.0  2.34349E+09  4.12922E+12
      2367    11830.0  2.34882E+09  4.14097E+12
      2368    11835.0  2.35486E+09  4.15274E+12
      2369    11840.0  2.36069E+09  4.16454E+12
      2370    11845.0  2.36718E+09  4.17638E+12
      2371    11850.0  2.37255E+09  4.18824E+12
      2372    11855.0  2.37847E+09  4.20013E+12
      2373    11860.0  2.38446E+09  4.21206E+12
      2374    11865.0  2.39105E+09  4.22401E+12
      2375    11870.0  2.39684E+09  4.23600E+12
      2376    11875.0  2.40286E+09  4.24801E+12
      2377    11880.0  2.40920E+09  4.26006E+12
      2378    11885.0  2.41490E+09  4.27213E+12
      2379    11890.0  2.42057E+09  4.28423E+12
      2380    11895.0  2.42694E+09  4.29637E+12
      2381    11900.0  2.43228E+09  4.30853E+12
      2382    11905.0  2.43940E+09  4.32073E+12
      2383    11910.0  2.44482E+09  4.33295E+12
      2384    11915.0  2.45201E+09  4.34521E+12
      2385    11920.0  2.45690E+09  4.35750E+12
      2386    11925.0  2.46337E+09  4.36981E+12
      2387    11930.0  2.47001E+09  4.38216E+12
      2388    11935.0  2.47555E+09  4.39454E+12
      2389    11940.0  2.48258E+09  4.40695E+12
      2390    11945.0  2.48830E+09  4.41939E+12
      2391    11950.0  2.49518E+09  4.43187E+12
      2392    11955.0  2.50089E+09  4.44437E+12
      2393    11960.0  2.50690E+09  4.45691E+12
      2394    11965.0  2.51381E+09  4.46948E+12
      2395    11970.0  2.51974E+09  4.48208E+12
      2396    11975.0  2.52541E+09  4.49470E+12
      2397    11980.0  2.53307E+09  4.50737E+12
      2398    11985.0  2.53822E+09  4.52006E+12
      2399    11990.0  2.54480E+09  4.53278E+12
      2400    11995.0  2.55149E+09  4.54554E+12
      2401    12000.0  2.55689E+09  4.55833E+12
      2402    12005.0  2.56340E+09  4.57114E+12
      2403    12010.0  2.57010E+09  4.58399E+12
      2404    12015.0  2.57754E+09  4.59688E+12
      2405    12020.0  2.58353E+09  4.60980E+12
      2406    12025.0  2.58908E+09  4.62274E+12
      2407    12030.0  2.59571E+09  4.63572E+12
      2408    12035.0  2.60258E+09  4.64874E+12
      2409    12040.0  2.60817E+09  4.66178E+12
      2410    12045.0  2.61621E+09  4.67486E+12
      2411    12050.0  2.62230E+09  4.68797E+12
      2412    12055.0  2.62815E+09  4.70111E+12
      2413    12060.0  2.63515E+09  4.71429E+12
      2414    12065.0  2.64164E+09  4.72749E+12
      2415    12070.0  2.64718E+09  4.74073E+12
      2416    12075.0  2.65514E+09  4.75401E+12
      2417    12080.0  2.66031E+09  4.76731E+12
      2418    12085.0  2.66911E+09  4.78065E+12
      2419    12090.0  2.67402E+09  4.79402E+12
      2420    12095.0  2.68163E+09  4.80743E+12
      2421    12100.0  2.68800E+09  4.82087E+12
      2422    12105.0  2.69351E+09  4.83434E+12
      2423    12110.0  2.70088E+09  4.84784E+12
      2424    12115.0  2.70804E+09  4.86138E+12
      2425    12120.0  2.71449E+09  4.87496E+12
      2426    12125.0  2.72097E+09  4.88856E+12
      2427    12130.0  2.72865E+09  4.90220E+12
      2428    12135.0  2.73409E+09  4.91587E+12
      2429    12140.0  2.74168E+09  4.92958E+12
      2430    12145.0  2.74664E+09  4.94332E+12
      2431    12150.0  2.75482E+09  4.95709E+12
      2432    12155.0  2.76154E+09  4.97090E+12
      2433    12160.0  2.76862E+09  4.98474E+12
      2434    12165.0  2.77603E+09  4.99862E+12
      2435    12170.0  2.78283E+09  5.01254E+12
      2436    12175.0  2.78746E+09  5.02647E+12
      2437    12180.0  2.79592E+09  5.04045E+12
      2438    12185.0  2.80273E+09  5.05447E+12
      2439    12190.0  2.80987E+09  5.06852E+12
      2440    12195.0  2.81680E+09  5.08260E+12
      2441    12200.0  2.82364E+09  5.09672E+12
      2442    12205.0  2.83116E+09  5.11087E+12
      2443    12210.0  2.83748E+09  5.12506E+12
      2444    12215.0  2.84480E+09  5.13928E+12
      2445    12220.0  2.85144E+09  5.15354E+12
      2446    12225.0  2.85779E+09  5.16783E+12
      2447    12230.0  2.86489E+09  5.18216E+12
      2448    12235.0  2.87338E+09  5.19652E+12
      2449    12240.0  2.87981E+09  5.21092E+12
      2450    12245.0  2.88648E+09  5.22535E+12
      2451    12250.0  2.89299E+09  5.23982E+12
      2452    12255.0  2.90074E+09  5.25432E+12
      2453    12260.0  2.90688E+09  5.26886E+12
      2454    12265.0  2.91528E+09  5.28343E+12
      2455    12270.0  2.92255E+09  5.29805E+12
      2456    12275.0  2.92995E+09  5.31270E+12
      2457    12280.0  2.93579E+09  5.32737E+12
      2458    12285.0  2.94411E+09  5.34209E+12
      2459    12290.0  2.95101E+09  5.35685E+12
      2460    12295.0  2.95703E+09  5.37164E+12
      2461    12300.0  2.96631E+09  5.38647E+12
      2462    12305.0  2.97264E+09  5.40133E+12
      2463    12310.0  2.98044E+09  5.41623E+12
      2464    12315.0  2.98684E+09  5.43117E+12
      2465    12320.0  2.99488E+09  5.44614E+12
      2466    12325.0  3.00121E+09  5.46115E+12
      2467    12330.0  3.00828E+09  5.47619E+12
      2468    12335.0  3.01665E+09  5.49127E+12
      2469    12340.0  3.02451E+09  5.50639E+12
      2470    12345.0  3.03026E+09  5.52155E+12
      2471    12350.0  3.03966E+09  5.53674E+12
      2472    12355.0  3.04588E+09  5.55197E+12
      2473    12360.0  3.05345E+09  5.56724E+12
      2474    12365.0  3.06055E+09  5.58254E+12
      2475    12370.0  3.06815E+09  5.59788E+12
      2476    12375.0  3.07542E+09  5.61326E+12
      2477    12380.0  3.08332E+09  5.62868E+12
      2478    12385.0  3.09119E+09  5.64413E+12
      2479    12390.0  3.09881E+09  5.65963E+12
      2480    12395.0  3.10568E+09  5.67516E+12
      2481    12400.0  3.11254E+09  5.69072E+12
      2482    12405.0  3.12069E+09  5.70632E+12
      2483    12410.0  3.12899E+09  5.72197E+12
      2484    12415.0  3.13620E+09  5.73765E+12
      2485    12420.0  3.14407E+09  5.75337E+12
      2486    12425.0  3.15157E+09  5.76913E+12
      2487    12430.0  3.15775E+09  5.78491E+12
      2488    12435.0  3.16695E+09  5.80075E+12
      2489    12440.0  3.17359E+09  5.81662E+12
      2490    12445.0  3.18295E+09  5.83253E+12
      2491    12450.0  3.18920E+09  5.84848E+12
      2492    12455.0  3.19822E+09  5.86447E+12
      2493    12460.0  3.20628E+09  5.88050E+12
      2494    12465.0  3.21245E+09  5.89656E+12
      2495    12470.0  3.22061E+09  5.91267E+12
      2496    12475.0  3.22864E+09  5.92881E+12
      2497    12480.0  3.23549E+09  5.94499E+12
      2498    12485.0  3.24445E+09  5.96121E+12
      2499    12490.0  3.25296E+09  5.97747E+12
      2500    12495.0  3.25960E+09  5.99377E+12
      2501    12500.0  3.26771E+09  6.01011E+12
      2502    12505.0  3.27528E+09  6.02649E+12
      2503    12510.0  3.28374E+09  6.04291E+12
      2504    12515.0  3.29106E+09  6.05936E+12
      2505    12520.0  3.29933E+09  6.07586E+12
      2506    12525.0  3.30808E+09  6.09240E+12
      2507    12530.0  3.31613E+09  6.10898E+12
      2508    12535.0  3.32306E+09  6.12559E+12
      2509    12540.0  3.33217E+09  6.14225E+12
      2510    12545.0  3.33845E+09  6.15895E+12
      2511    12550.0  3.34660E+09  6.17568E+12
      2512    12555.0  3.35662E+09  6.19246E+12
      2513    12560.0  3.36383E+09  6.20928E+12
      2514    12565.0  3.37136E+09  6.22614E+12
      2515    12570.0  3.38010E+09  6.24304E+12
      2516    12575.0  3.38774E+09  6.25998E+12
      2517    12580.0  3.39631E+09  6.27696E+12
      2518    12585.0  3.40353E+09  6.29398E+12
      2519    12590.0  3.41272E+09  6.31104E+12
      2520    12595.0  3.42092E+09  6.32815E+12
      2521    12600.0  3.42810E+09  6.34529E+12
      2522    12605.0  3.43799E+09  6.36248E+12
      2523    12610.0  3.44519E+09  6.37970E+12
      2524    12615.0  3.45407E+09  6.39697E+12
      2525    12620.0  3.46117E+09  6.41428E+12
      2526    12625.0  3.47063E+09  6.43163E+12
      2527    12630.0  3.47843E+09  6.44902E+12
      2528    12635.0  3.48706E+09  6.46646E+12
      2529    12640.0  3.49510E+09  6.48393E+12
      2530    12645.0  3.50497E+09  6.50146E+12
      2531    12650.0  3.51078E+09  6.51901E+12
      2532    12655.0  3.52046E+09  6.53662E+12
      2533    12660.0  3.52919E+09  6.55426E+12
      2534    12665.0  3.53677E+09  6.57194E+12
      2535    12670.0  3.54537E+09  6.58967E+12
      2536    12675.0  3.55481E+09  6.60745E+12
      2537    12680.0  3.56227E+09  6.62526E+12
      2538    12685.0  3.57110E+09  6.64311E+12
      2539    12690.0  3.57940E+09  6.66101E+12
      2540    12695.0  3.58858E+09  6.67895E+12
      2541    12700.0  3.59699E+09  6.69694E+12
      2542    12705.0  3.60467E+09  6.71496E+12
      2543    12710.0  3.61543E+09  6.73304E+12
      2544    12715.0  3.62237E+09  6.75115E+12
      2545    12720.0  3.63134E+09  6.76931E+12
      2546    12725.0  3.64053E+09  6.78751E+12
      2547    12730.0  3.64920E+09  6.80576E+12
      2548    12735.0  3.65635E+09  6.82404E+12
      2549    12740.0  3.66617E+09  6.84237E+12
      2550    12745.0  3.67408E+09  6.86074E+12
      2551    12750.0  3.68459E+09  6.87916E+12
      2552    12755.0  3.69151E+09  6.89762E+12
      2553    12760.0  3.70106E+09  6.91612E+12
      2554    12765.0  3.70995E+09  6.93467E+12
      2555    12770.0  3.71741E+09  6.95326E+12
      2556    12775.0  3.72810E+09  6.97190E+12
      2557    12780.0  3.73759E+09  6.99059E+12
      2558    12785.0  3.74500E+09  7.00931E+12
      2559    12790.0  3.75304E+09  7.02808E+12
      2560    12795.0  3.76432E+09  7.04690E+12
      2561    12800.0  3.77126E+09  7.06576E+12
      2562    12805.0  3.78140E+09  7.08466E+12
      2563    12810.0  3.78973E+09  7.10361E+12
      2564    12815.0  3.79905E+09  7.12261E+12
      2565    12820.0  3.80772E+09  7.14165E+12
      2566    12825.0  3.81604E+09  7.16073E+12
      2567    12830.0  3.82750E+09  7.17986E+12
      2568    12835.0  3.83434E+09  7.19904E+12
      2569    12840.0  3.84324E+09  7.21825E+12
      2570    12845.0  3.85403E+09  7.23752E+12
      2571    12850.0  3.86267E+09  7.25684E+12
      2572    12855.0  3.87091E+09  7.27619E+12
      2573    12860.0  3.88069E+09  7.29559E+12
      2574    12865.0  3.88999E+09  7.31504E+12
      2575    12870.0  3.89858E+09  7.33454E+12
      2576    12875.0  3.90863E+09  7.35408E+12
      2577    12880.0  3.91772E+09  7.37367E+12
      2578    12885.0  3.92725E+09  7.39330E+12
      2579    12890.0  3.93567E+09  7.41298E+12
      2580    12895.0  3.94445E+09  7.43271E+12
      2581    12900.0  3.95524E+09  7.45248E+12
      2582    12905.0  3.96291E+09  7.47230E+12
      2583    12910.0  3.97303E+09  7.49216E+12
      2584    12915.0  3.98279E+09  7.51208E+12
      2585    12920.0  3.99234E+09  7.53204E+12
      2586    12925.0  4.00069E+09  7.55204E+12
      2587    12930.0  4.01120E+09  7.57210E+12
      2588    12935.0  4.01913E+09  7.59219E+12
      2589    12940.0  4.03037E+09  7.61234E+12
      2590    12945.0  4.03844E+09  7.63254E+12
      2591    12950.0  4.04985E+09  7.65279E+12
      2592    12955.0  4.05857E+09  7.67308E+12
      2593    12960.0  4.06662E+09  7.69341E+12
      2594    12965.0  4.07799E+09  7.71380E+12
      2595    12970.0  4.08714E+09  7.73424E+12
      2596    12975.0  4.09652E+09  7.75472E+12
      2597    12980.0  4.10558E+09  7.77525E+12
      2598    12985.0  4.11688E+09  7.79583E+12
      2599    12990.0  4.12451E+09  7.81645E+12
      2600    12995.0  4.13507E+09  7.83713E+12
      2601    13000.0  4.14456E+09  7.85785E+12
      2602    13005.0  4.15465E+09  7.87863E+12
      2603    13010.0  4.16260E+09  7.89944E+12
      2604    13015.0  4.17441E+09  7.92031E+12
      2605    13020.0  4.18468E+09  7.94123E+12
      2606    13025.0  4.19290E+09  7.96220E+12
      2607    13030.0  4.20333E+09  7.98322E+12
      2608    13035.0  4.21381E+09  8.00428E+12
      2609    13040.0  4.22216E+09  8.02540E+12
      2610    13045.0  4.23279E+09  8.04656E+12
      2611    13050.0  4.24359E+09  8.06778E+12
      2612    13055.0  4.25302E+09  8.08904E+12
      2613    13060.0  4.26279E+09  8.11036E+12
      2614    13065.0  4.27227E+09  8.13172E+12
      2615    13070.0  4.28334E+09  8.15313E+12
      2616    13075.0  4.29170E+09  8.17459E+12
      2617    13080.0  4.30211E+09  8.19610E+12
      2618    13085.0  4.31376E+09  8.21767E+12
      2619    13090.0  4.32222E+09  8.23928E+12
      2620    13095.0  4.33306E+09  8.26095E+12
      2621    13100.0  4.34408E+09  8.28267E+12
      2622    13105.0  4.35224E+09  8.30443E+12
      2623    13110.0  4.36332E+09  8.32625E+12
      2624    13115.0  4.37285E+09  8.34811E+12
      2625    13120.0  4.38396E+09  8.37003E+12
      2626    13125.0  4.39384E+09  8.39200E+12
      2627    13130.0  4.40395E+09  8.41402E+12
      2628    13135.0  4.41423E+09  8.43609E+12
      2629    13140.0  4.42519E+09  8.45822E+12
      2630    13145.0  4.43358E+09  8.48038E+12
      2631    13150.0  4.44492E+09  8.50261E+12
      2632    13155.0  4.45554E+09  8.52489E+12
      2633    13160.0  4.46457E+09  8.54721E+12
      2634    13165.0  4.47751E+09  8.56960E+12
      2635    13170.0  4.48707E+09  8.59203E+12
      2636    13175.0  4.49681E+09  8.61452E+12
      2637    13180.0  4.50672E+09  8.63705E+12
      2638    13185.0  4.51699E+09  8.65964E+12
      2639    13190.0  4.52909E+09  8.68228E+12
      2640    13195.0  4.53896E+09  8.70498E+12
      2641    13200.0  4.54929E+09  8.72772E+12
      2642    13205.0  4.56147E+09  8.75053E+12
      2643    13210.0  4.56945E+09  8.77338E+12
      2644    13215.0  4.58190E+09  8.79629E+12
      2645    13220.0  4.59173E+09  8.81924E+12
      2646    13225.0  4.60251E+09  8.84226E+12
      2647    13230.0  4.61214E+09  8.86532E+12
      2648    13235.0  4.62417E+09  8.88844E+12
      2649    13240.0  4.63476E+09  8.91161E+12
      2650    13245.0  4.64515E+09  8.93484E+12
      2651    13250.0  4.65541E+09  8.95812E+12
      2652    13255.0  4.66597E+09  8.98145E+12
      2653    13260.0  4.67702E+09  9.00483E+12
      2654    13265.0  4.68622E+09  9.02826E+12
      2655    13270.0  4.69953E+09  9.05176E+12
      2656    13275.0  4.71035E+09  9.07531E+12
      2657    13280.0  4.72068E+09  9.09891E+12
      2658    13285.0  4.73119E+09  9.12257E+12
      2659    13290.0  4.74348E+09  9.14629E+12
      2660    13295.0  4.75238E+09  9.17005E+12
      2661    13300.0  4.76421E+09  9.19387E+12
      2662    13305.0  4.77553E+09  9.21775E+12
      2663    13310.0  4.78756E+09  9.24169E+12
      2664    13315.0  4.79737E+09  9.26567E+12
      2665    13320.0  4.80849E+09  9.28972E+12
      2666    13325.0  4.82037E+09  9.31382E+12
      2667    13330.0  4.82803E+09  9.33796E+12
      2668    13335.0  4.84224E+09  9.36217E+12
      2669    13340.0  4.85347E+09  9.38644E+12
      2670    13345.0  4.86364E+09  9.41075E+12
      2671    13350.0  4.87505E+09  9.43513E+12
      2672    13355.0  4.88660E+09  9.45956E+12
      2673    13360.0  4.89814E+09  9.48405E+12
      2674    13365.0  4.90800E+09  9.50859E+12
      2675    13370.0  4.91994E+09  9.53319E+12
      2676    13375.0  4.93151E+09  9.55785E+12
      2677    13380.0  4.94116E+09  9.58256E+12
      2678    13385.0  4.95464E+09  9.60733E+12
      2679    13390.0  4.96610E+09  9.63216E+12
      2680    13395.0  4.97699E+09  9.65704E+12
      2681    13400.0  4.98690E+09  9.68198E+12
      2682    13405.0  4.99913E+09  9.70697E+12
      2683    13410.0  5.01027E+09  9.73203E+12
      2684    13415.0  5.02375E+09  9.75714E+12
      2685    13420.0  5.03475E+09  9.78232E+12
      2686    13425.0  5.04653E+09  9.80755E+12
      2687    13430.0  5.05657E+09  9.83283E+12
      2688    13435.0  5.06718E+09  9.85817E+12
      2689    13440.0  5.07992E+09  9.88357E+12
      2690    13445.0  5.09275E+09  9.90903E+12
      2691    13450.0  5.10305E+09  9.93455E+12
      2692    13455.0  5.11537E+09  9.96013E+12
      2693    13460.0  5.12797E+09  9.98577E+12
      2694    13465.0  5.13777E+09  1.00115E+13
      2695    13470.0  5.15110E+09  1.00372E+13
      2696    13475.0  5.16035E+09  1.00630E+13
      2697    13480.0  5.17416E+09  1.00889E+13
      2698    13485.0  5.18486E+09  1.01148E+13
      2699    13490.0  5.19789E+09  1.01408E+13
      2700    13495.0  5.20995E+09  1.01668E+13
      2701    13500.0  5.22134E+09  1.01930E+13
      2702    13505.0  5.23097E+09  1.02191E+13
      2703    13510.0  5.24610E+09  1.02453E+13
      2704    13515.0  5.25565E+09  1.02716E+13
      2705    13520.0  5.26760E+09  1.02980E+13
      2706    13525.0  5.28162E+09  1.03244E+13
      2707    13530.0  5.29387E+09  1.03508E+13
      2708    13535.0  5.30499E+09  1.03774E+13
      2709    13540.0  5.31733E+09  1.04039E+13
      2710    13545.0  5.32893E+09  1.04306E+13
      2711    13550.0  5.33993E+09  1.04573E+13
      2712    13555.0  5.35349E+09  1.04841E+13
      2713    13560.0  5.36623E+09  1.05109E+13
      2714    13565.0  5.37891E+09  1.05378E+13
      2715    13570.0  5.38852E+09  1.05647E+13
      2716    13575.0  5.40226E+09  1.05917E+13
      2717    13580.0  5.41413E+09  1.06188E+13
      2718    13585.0  5.42527E+09  1.06459E+13
      2719    13590.0  5.43852E+09  1.06731E+13
      2720    13595.0  5.45226E+09  1.07004E+13
      2721    13600.0  5.46159E+09  1.07277E+13
      2722    13605.0  5.47659E+09  1.07551E+13
      2723    13610.0  5.48909E+09  1.07825E+13
      2724    13615.0  5.50131E+09  1.08100E+13
      2725    13620.0  5.51294E+09  1.08376E+13
      2726    13625.0  5.52422E+09  1.08652E+13
      2727    13630.0  5.53889E+09  1.08929E+13
      2728    13635.0  5.55002E+09  1.09207E+13
      2729    13640.0  5.56366E+09  1.09485E+13
      2730    13645.0  5.57726E+09  1.09764E+13
      2731    13650.0  5.58794E+09  1.10043E+13
      2732    13655.0  5.59955E+09  1.10323E+13
      2733    13660.0  5.61422E+09  1.10604E+13
      2734    13665.0  5.62625E+09  1.10885E+13
      2735    13670.0  5.63940E+09  1.11167E+13
      2736    13675.0  5.65159E+09  1.11450E+13
      2737    13680.0  5.66428E+09  1.11733E+13
      2738    13685.0  5.67722E+09  1.12017E+13
      2739    13690.0  5.68881E+09  1.12301E+13
      2740    13695.0  5.70318E+09  1.12586E+13
      2741    13700.0  5.71594E+09  1.12872E+13
      2742    13705.0  5.72736E+09  1.13158E+13
      2743    13710.0  5.74263E+09  1.13446E+13
      2744    13715.0  5.75451E+09  1.13733E+13
      2745    13720.0  5.76809E+09  1.14022E+13
      2746    13725.0  5.77953E+09  1.14311E+13
      2747    13730.0  5.79437E+09  1.14600E+13
      2748    13735.0  5.80652E+09  1.14891E+13
      2749    13740.0  5.81851E+09  1.15182E+13
      2750    13745.0  5.83284E+09  1.15473E+13
      2751    13750.0  5.84604E+09  1.15766E+13
      2752    13755.0  5.85873E+09  1.16059E+13
      2753    13760.0  5.87051E+09  1.16352E+13
      2754    13765.0  5.88616E+09  1.16646E+13
      2755    13770.0  5.89616E+09  1.16941E+13
      2756    13775.0  5.91153E+09  1.17237E+13
      2757    13780.0  5.92560E+09  1.17533E+13
      2758    13785.0  5.93984E+09  1.17830E+13
      2759    13790.0  5.95083E+09  1.18128E+13
      2760    13795.0  5.96421E+09  1.18426E+13
      2761    13800.0  5.97839E+09  1.18725E+13
      2762    13805.0  5.99099E+09  1.19024E+13
      2763    13810.0  6.00428E+09  1.19324E+13
      2764    13815.0  6.01985E+09  1.19625E+13
      2765    13820.0  6.03169E+09  1.19927E+13
      2766    13825.0  6.04278E+09  1.20229E+13
      2767    13830.0  6.06072E+09  1.20532E+13
      2768    13835.0  6.07191E+09  1.20836E+13
      2769    13840.0  6.08538E+09  1.21140E+13
      2770    13845.0  6.09933E+09  1.21445E+13
      2771    13850.0  6.11332E+09  1.21751E+13
      2772    13855.0  6.12786E+09  1.22057E+13
      2773    13860.0  6.14001E+09  1.22364E+13
      2774    13865.0  6.15540E+09  1.22672E+13
      2775    13870.0  6.16784E+09  1.22980E+13
      2776    13875.0  6.18001E+09  1.23289E+13
      2777    13880.0  6.19581E+09  1.23599E+13
      2778    13885.0  6.21034E+09  1.23910E+13
      2779    13890.0  6.22284E+09  1.24221E+13
      2780    13895.0  6.23611E+09  1.24532E+13
      2781    13900.0  6.25239E+09  1.24845E+13
      2782    13905.0  6.26388E+09  1.25158E+13
      2783    13910.0  6.27801E+09  1.25472E+13
      2784    13915.0  6.29240E+09  1.25787E+13
      2785    13920.0  6.30716E+09  1.26102E+13
      2786    13925.0  6.32120E+09  1.26418E+13
      2787    13930.0  6.33441E+09  1.26735E+13
      2788    13935.0  6.35035E+09  1.27052E+13
      2789    13940.0  6.36187E+09  1.27371E+13
      2790    13945.0  6.37608E+09  1.27689E+13
      2791    13950.0  6.39216E+09  1.28009E+13
      2792    13955.0  6.40656E+09  1.28329E+13
      2793    13960.0  6.41871E+09  1.28650E+13
      2794    13965.0  6.43504E+09  1.28972E+13
      2795    13970.0  6.44780E+09  1.29294E+13
      2796    13975.0  6.46388E+09  1.29618E+13
      2797    13980.0  6.47584E+09  1.29941E+13
      2798    13985.0  6.49285E+09  1.30266E+13
      2799    13990.0  6.50548E+09  1.30591E+13
      2800    13995.0  6.51840E+09  1.30917E+13
      2801    14000.0  6.53495E+09  1.31244E+13
      2802    14005.0  6.54959E+09  1.31571E+13
      2803    14010.0  6.56286E+09  1.31900E+13
      2804    14015.0  6.57695E+09  1.32228E+13
      2805    14020.0  6.59319E+09  1.32558E+13
      2806    14025.0  6.60713E+09  1.32888E+13
      2807    14030.0  6.62177E+09  1.33220E+13
      2808    14035.0  6.63754E+09  1.33551E+13
      2809    14040.0  6.65181E+09  1.33884E+13
      2810    14045.0  6.66418E+09  1.34217E+13
      2811    14050.0  6.68042E+09  1.34551E+13
      2812    14055.0  6.69626E+09  1.34886E+13
      2813    14060.0  6.71041E+09  1.35222E+13
      2814    14065.0  6.72391E+09  1.35558E+13
      2815    14070.0  6.74151E+09  1.35895E+13
      2816    14075.0  6.75364E+09  1.36233E+13
      2817    14080.0  6.76944E+09  1.36571E+13
      2818    14085.0  6.78440E+09  1.36910E+13
      2819    14090.0  6.80020E+09  1.37250E+13
      2820    14095.0  6.81390E+09  1.37591E+13
      2821    14100.0  6.82946E+09  1.37932E+13
      2822    14105.0  6.84529E+09  1.38275E+13
      2823    14110.0  6.85965E+09  1.38618E+13
      2824    14115.0  6.87367E+09  1.38961E+13
      2825    14120.0  6.89029E+09  1.39306E+13
      2826    14125.0  6.90565E+09  1.39651E+13
      2827    14130.0  6.91871E+09  1.39997E+13
      2828    14135.0  6.93620E+09  1.40344E+13
      2829    14140.0  6.95024E+09  1.40691E+13
      2830    14145.0  6.96631E+09  1.41040E+13
      2831    14150.0  6.98118E+09  1.41389E+13
      2832    14155.0  6.99652E+09  1.41739E+13
      2833    14160.0  7.01179E+09  1.42089E+13
      2834    14165.0  7.02671E+09  1.42441E+13
      2835    14170.0  7.04236E+09  1.42793E+13
      2836    14175.0  7.06010E+09  1.43146E+13
      2837    14180.0  7.07293E+09  1.43499E+13
      2838    14185.0  7.08754E+09  1.43854E+13
      2839    14190.0  7.10617E+09  1.44209E+13
      2840    14195.0  7.11918E+09  1.44565E+13
      2841    14200.0  7.13621E+09  1.44922E+13
      2842    14205.0  7.15250E+09  1.45279E+13
      2843    14210.0  7.16700E+09  1.45638E+13
      2844    14215.0  7.18323E+09  1.45997E+13
      2845    14220.0  7.19880E+09  1.46357E+13
      2846    14225.0  7.21501E+09  1.46718E+13
      2847    14230.0  7.23161E+09  1.47079E+13
      2848    14235.0  7.24367E+09  1.47441E+13
      2849    14240.0  7.26271E+09  1.47804E+13
      2850    14245.0  7.27768E+09  1.48168E+13
      2851    14250.0  7.29295E+09  1.48533E+13
      2852    14255.0  7.30947E+09  1.48898E+13
      2853    14260.0  7.32660E+09  1.49265E+13
      2854    14265.0  7.33904E+09  1.49632E+13
      2855    14270.0  7.35791E+09  1.50000E+13
      2856    14275.0  7.37385E+09  1.50368E+13
      2857    14280.0  7.39043E+09  1.50738E+13
      2858    14285.0  7.40579E+09  1.51108E+13
      2859    14290.0  7.42181E+09  1.51479E+13
      2860    14295.0  7.43964E+09  1.51851E+13
      2861    14300.0  7.45236E+09  1.52224E+13
      2862    14305.0  7.47028E+09  1.52597E+13
      2863    14310.0  7.48865E+09  1.52972E+13
      2864    14315.0  7.50283E+09  1.53347E+13
      2865    14320.0  7.51938E+09  1.53723E+13
      2866    14325.0  7.53805E+09  1.54100E+13
      2867    14330.0  7.55023E+09  1.54477E+13
      2868    14335.0  7.56869E+09  1.54856E+13
      2869    14340.0  7.58525E+09  1.55235E+13
      2870    14345.0  7.60250E+09  1.55615E+13
      2871    14350.0  7.61768E+09  1.55996E+13
      2872    14355.0  7.63438E+09  1.56378E+13
      2873    14360.0  7.65198E+09  1.56760E+13
      2874    14365.0  7.66815E+09  1.57144E+13
      2875    14370.0  7.68363E+09  1.57528E+13
      2876    14375.0  7.70247E+09  1.57913E+13
      2877    14380.0  7.71661E+09  1.58299E+13
      2878    14385.0  7.73460E+09  1.58686E+13
      2879    14390.0  7.75220E+09  1.59073E+13
      2880    14395.0  7.77037E+09  1.59462E+13
      2881    14400.0  7.78473E+09  1.59851E+13
      2882    14405.0  7.80091E+09  1.60241E+13
      2883    14410.0  7.81815E+09  1.60632E+13
      2884    14415.0  7.83592E+09  1.61024E+13
      2885    14420.0  7.85320E+09  1.61416E+13
      2886    14425.0  7.87120E+09  1.61810E+13
      2887    14430.0  7.88850E+09  1.62204E+13
      2888    14435.0  7.90113E+09  1.62599E+13
      2889    14440.0  7.92174E+09  1.62995E+13
      2890    14445.0  7.93853E+09  1.63392E+13
      2891    14450.0  7.95628E+09  1.63790E+13
      2892    14455.0  7.97210E+09  1.64189E+13
      2893    14460.0  7.99079E+09  1.64588E+13
      2894    14465.0  8.00794E+09  1.64989E+13
      2895    14470.0  8.02421E+09  1.65390E+13
      2896    14475.0  8.04080E+09  1.65792E+13
      2897    14480.0  8.05959E+09  1.66195E+13
      2898    14485.0  8.07546E+09  1.66599E+13
      2899    14490.0  8.09311E+09  1.67003E+13
      2900    14495.0  8.11333E+09  1.67409E+13
      2901    14500.0  8.12849E+09  1.67816E+13
      2902    14505.0  8.14622E+09  1.68223E+13
      2903    14510.0  8.16407E+09  1.68631E+13
      2904    14515.0  8.18151E+09  1.69040E+13
      2905    14520.0  8.19771E+09  1.69450E+13
      2906    14525.0  8.21644E+09  1.69861E+13
      2907    14530.0  8.23491E+09  1.70273E+13
      2908    14535.0  8.25422E+09  1.70685E+13
      2909    14540.0  8.26923E+09  1.71099E+13
      2910    14545.0  8.28899E+09  1.71513E+13
      2911    14550.0  8.30534E+09  1.71928E+13
      2912    14555.0  8.32192E+09  1.72345E+13
      2913    14560.0  8.34163E+09  1.72762E+13
      2914    14565.0  8.36228E+09  1.73180E+13
      2915    14570.0  8.37637E+09  1.73599E+13
      2916    14575.0  8.39564E+09  1.74018E+13
      2917    14580.0  8.41317E+09  1.74439E+13
      2918    14585.0  8.43107E+09  1.74861E+13
      2919    14590.0  8.44882E+09  1.75283E+13
      2920    14595.0  8.46784E+09  1.75706E+13
      2921    14600.0  8.48707E+09  1.76131E+13
      2922    14605.0  8.50130E+09  1.76556E+13
      2923    14610.0  8.52291E+09  1.76982E+13
      2924    14615.0  8.54165E+09  1.77409E+13
      2925    14620.0  8.55911E+09  1.77837E+13
      2926    14625.0  8.57449E+09  1.78266E+13
      2927    14630.0  8.59679E+09  1.78696E+13
      2928    14635.0  8.61282E+09  1.79126E+13
      2929    14640.0  8.63265E+09  1.79558E+13
      2930    14645.0  8.65325E+09  1.79991E+13
      2931    14650.0  8.67021E+09  1.80424E+13
      2932    14655.0  8.68589E+09  1.80858E+13
      2933    14660.0  8.70541E+09  1.81294E+13
      2934    14665.0  8.72466E+09  1.81730E+13
      2935    14670.0  8.74483E+09  1.82167E+13
      2936    14675.0  8.76140E+09  1.82605E+13
      2937    14680.0  8.78188E+09  1.83044E+13
      2938    14685.0  8.80130E+09  1.83484E+13
      2939    14690.0  8.81659E+09  1.83925E+13
      2940    14695.0  8.83897E+09  1.84367E+13
      2941    14700.0  8.85604E+09  1.84810E+13
      2942    14705.0  8.87479E+09  1.85254E+13
      2943    14710.0  8.89390E+09  1.85698E+13
      2944    14715.0  8.91356E+09  1.86144E+13
      2945    14720.0  8.93303E+09  1.86591E+13
      2946    14725.0  8.95046E+09  1.87038E+13
      2947    14730.0  8.96946E+09  1.87487E+13
      2948    14735.0  8.99021E+09  1.87936E+13
      2949    14740.0  9.00714E+09  1.88386E+13
      2950    14745.0  9.02758E+09  1.88838E+13
      2951    14750.0  9.04715E+09  1.89290E+13
      2952    14755.0  9.06729E+09  1.89744E+13
      2953    14760.0  9.08407E+09  1.90198E+13
      2954    14765.0  9.10464E+09  1.90653E+13
      2955    14770.0  9.12468E+09  1.91109E+13
      2956    14775.0  9.14118E+09  1.91566E+13
      2957    14780.0  9.16239E+09  1.92024E+13
      2958    14785.0  9.18408E+09  1.92484E+13
      2959    14790.0  9.20474E+09  1.92944E+13
      2960    14795.0  9.21943E+09  1.93405E+13
      2961    14800.0  9.24252E+09  1.93867E+13
      2962    14805.0  9.25919E+09  1.94330E+13
      2963    14810.0  9.27896E+09  1.94794E+13
      2964    14815.0  9.30149E+09  1.95259E+13
      2965    14820.0  9.32118E+09  1.95725E+13
      2966    14825.0  9.33815E+09  1.96192E+13
      2967    14830.0  9.35878E+09  1.96660E+13
      2968    14835.0  9.37906E+09  1.97129E+13
      2969    14840.0  9.39945E+09  1.97599E+13
      2970    14845.0  9.41597E+09  1.98070E+13
      2971    14850.0  9.43834E+09  1.98542E+13
      2972    14855.0  9.46100E+09  1.99015E+13
      2973    14860.0  9.47651E+09  1.99488E+13
      2974    14865.0  9.50135E+09  1.99963E+13
      2975    14870.0  9.51986E+09  2.00439E+13
      2976    14875.0  9.53683E+09  2.00916E+13
      2977    14880.0  9.55822E+09  2.01394E+13
      2978    14885.0  9.57974E+09  2.01873E+13
      2979    14890.0  9.60095E+09  2.02353E+13
      2980    14895.0  9.61932E+09  2.02834E+13
      2981    14900.0  9.64052E+09  2.03316E+13
      2982    14905.0  9.66199E+09  2.03799E+13
      2983    14910.0  9.67887E+09  2.04283E+13
      2984    14915.0  9.69992E+09  2.04768E+13
      2985    14920.0  9.72220E+09  2.05254E+13
      2986    14925.0  9.74359E+09  2.05742E+13
      2987    14930.0  9.76133E+09  2.06230E+13
      2988    14935.0  9.78633E+09  2.06719E+13
      2989    14940.0  9.80346E+09  2.07209E+13
      2990    14945.0  9.82265E+09  2.07700E+13
      2991    14950.0  9.84550E+09  2.08193E+13
      2992    14955.0  9.86583E+09  2.08686E+13
      2993    14960.0  9.88807E+09  2.09180E+13
      2994    14965.0  9.90685E+09  2.09676E+13
      2995    14970.0  9.92929E+09  2.10172E+13
      2996    14975.0  9.95029E+09  2.10670E+13
      2997    14980.0  9.96868E+09  2.11168E+13
      2998    14985.0  9.99178E+09  2.11668E+13
      2999    14990.0  1.00138E+10  2.12168E+13
      3000    14995.0  1.00309E+10  2.12670E+13
      3001        0.0  2.40000E+00  1.20000E+01
      3002       80.1  9.05000E+02  3.00270E+04
      3003      160.2  2.77940E+03  1.78673E+05
      3004      240.2  5.34580E+03  5.05383E+05
      3005      320.3  8.39200E+03  1.06327E+06
      3006      400.4  1.26366E+04  1.93174E+06
      3007      480.5  1.84450E+04  3.21071E+06
      3008      560.6  2.42902E+04  4.98215E+06
      3009      640.6  3.42202E+04  7.34560E+06
      3010      720.7  4.15202E+04  1.03836E+07
      3011      800.8  5.01536E+04  1.41835E+07
      3012      880.9  6.31130E+04  1.88672E+07
      3013      961.0  7.94508E+04  2.45942E+07
      3014     1041.0  9.24124E+04  3.15117E+07
      3015     1121.1  1.14725E+05  3.98905E+07
      3016     1201.2  1.33579E+05  4.99352E+07
      3017     1281.3  1.60763E+05  6.19159E+07
      3018     1361.4  1.90432E+05  7.61605E+07
      3019     1441.4  2.25743E+05  9.30582E+07
      3020     1521.5  2.65706E+05  1.12999E+08
      3021     1601.6  3.13987E+05  1.36477E+08
      3022     1681.7  3.68475E+05  1.63869E+08
      3023     1761.8  4.21027E+05  1.95690E+08
      3024     1841.8  4.89605E+05  2.32533E+08
      3025     1921.9  5.58446E+05  2.74987E+08
      3026     2002.0  6.43993E+05  3.23723E+08
      3027     2082.1  7.40437E+05  3.79405E+08
      3028     2162.2  8.30382E+05  4.42818E+08
      3029     2242.2  9.45240E+05  5.14703E+08
      3030     2322.3  1.07670E+06  5.96101E+08
      3031     2402.4  1.21304E+06  6.88085E+08
      3032     2482.5  1.35839E+06  7.91713E+08
      3033     2562.6  1.53301E+06  9.08044E+08
      3034     2642.6  1.70530E+06  1.03851E+09
      3035     2722.7  1.92542E+06  1.18461E+09
      3036     2802.8  2.15180E+06  1.34769E+09
      3037     2882.9  2.37780E+06  1.52947E+09
      3038     2963.0  2.65535E+06  1.73180E+09
      3039     3043.0  2.96871E+06  1.95652E+09
      3040     3123.1  3.25750E+06  2.20542E+09
      3041     3203.2  3.57523E+06  2.48065E+09
      3042     3283.3  3.97220E+06  2.78443E+09
      3043     3363.4  4.40020E+06  3.11940E+09
      3044     3443.4  4.83421E+06  3.48815E+09
      3045     3523.5  5.32234E+06  3.89340E+09
      3046     3603.6  5.78920E+06  4.33782E+09
      3047     3683.7  6.35329E+06  4.82532E+09
      3048     3763.8  6.94327E+06  5.35877E+09
      3049     3843.8  7.61513E+06  5.94259E+09
      3050     3923.9  8.29605E+06  6.57992E+09
      3051     4004.0  9.07766E+06  7.27540E+09
      3052     4084.1  9.90979E+06  8.03320E+09
      3053     4164.2  1.07701E+07  8.85812E+09
      3054     4244.2  1.16631E+07  9.75493E+09
      3055     4324.3  1.26635E+07  1.07290E+10
      3056     4404.4  1.37760E+07  1.17862E+10
      3057     4484.5  1.49185E+07  1.29322E+10
      3058     4564.6  1.61165E+07  1.41731E+10
      3059     4644.6  1.73735E+07  1.55152E+10
      3060     4724.7  1.87987E+07  1.69657E+10
      3061     4804.8  2.03547E+07  1.85328E+10
      3062     4884.9  2.19366E+07  2.02239E+10
      3063     4965.0  2.35993E+07  2.20470E+10
      3064     5045.0  2.55587E+07  2.41391E+10
      3065     5125.1  2.74382E+07  2.62633E+10
      3066     5205.2  2.95192E+07  2.85488E+10
      3067     5285.3  3.17283E+07  3.10048E+10
      3068     5365.4  3.40326E+07  3.36428E+10
      3069     5445.4  3.66472E+07  3.64748E+10
      3070     5525.5  3.92134E+07  3.95121E+10
      3071     5605.6  4.19754E+07  4.27670E+10
      3072     5685.7  4.48476E+07  4.62529E+10
      3073     5765.8  4.81682E+07  4.99850E+10
      3074     5845.8  5.15796E+07  5.39769E+10
      3075     5925.9  5.49989E+07  5.82443E+10
      3076     6006.0  5.87806E+07  6.28029E+10
      3077     6086.1  6.26876E+07  6.76699E+10
      3078     6166.2  6.69633E+07  7.28636E+10
      3079     6246.2  7.12633E+07  7.84024E+10
      3080     6326.3  7.60108E+07  8.43058E+10
      3081     6406.4  8.09480E+07  9.05938E+10
      3082     6486.5  8.61418E+07  9.72892E+10
      3083     6566.6  9.18284E+07  1.04415E+11
      3084     6646.6  9.74346E+07  1.11991E+11
      3085     6726.7  1.03493E+08  1.20044E+11
      3086     6806.8  1.09991E+08  1.28601E+11
      3087     6886.9  1.16925E+08  1.37689E+11
      3088     6967.0  1.24071E+08  1.47335E+11
      3089     7047.0  1.31427E+08  1.57567E+11
      3090     7127.1  1.39353E+08  1.68418E+11
      3091     7207.2  1.47710E+08  1.79918E+11
      3092     7287.3  1.56484E+08  1.92103E+11
      3093     7367.4  1.65591E+08  2.05004E+11
      3094     7447.4  1.75341E+08  2.18660E+11
      3095     7527.5  1.85642E+08  2.33109E+11
      3096     7607.6  1.96061E+08  2.48389E+11
      3097     7687.7  2.07300E+08  2.64544E+11
      3098     7767.8  2.18715E+08  2.81612E+11
      3099     7847.8  2.31194E+08  2.99642E+11
      3100     7927.9  2.43981E+08  3.18680E+11
      3101     8008.0  2.57703E+08  3.38775E+11
      3102     8088.1  2.71759E+08  3.59974E+11
      3103     8168.2  2.86410E+08  3.82332E+11
      3104     8248.2  3.02123E+08  4.05902E+11
      3105     8328.3  3.18228E+08  4.30742E+11
      3106     8408.4  3.35294E+08  4.56911E+11
      3107     8488.5  3.52648E+08  4.84469E+11
      3108     8568.6  3.71379E+08  5.13481E+11
      3109     8648.6  3.90936E+08  5.44014E+11
      3110     8728.7  4.10706E+08  5.76133E+11
      3111     8808.8  4.32062E+08  6.09911E+11
      3112     8888.9  4.54422E+08  6.45424E+11
      3113     8969.0  4.77675E+08  6.82747E+11
      3114     9049.0  5.01825E+08  7.21960E+11
      3115     9129.1  5.26692E+08  7.63146E+11
      3116     9209.2  5.52574E+08  8.06386E+11
      3117     9289.3  5.79541E+08  8.51777E+11
      3118     9369.4  6.09018E+08  8.99408E+11
      3119     9449.4  6.38697E+08  9.49372E+11
      3120     9529.5  6.69644E+08  1.00177E+12
      3121     9609.6  7.02177E+08  1.05670E+12
      3122     9689.7  7.35737E+08  1.11428E+12
      3123     9769.8  7.70885E+08  1.17461E+12
      3124     9849.8  8.06645E+08  1.23780E+12
      3125     9929.9  8.44895E+08  1.30397E+12
      3126    10010.0  8.87593E+08  1.37770E+12
      3127    10090.1  9.28457E+08  1.45042E+12
      3128    10170.2  9.70896E+08  1.52650E+12
      3129    10250.3  1.01606E+09  1.60610E+12
      3130    10330.3  1.06251E+09  1.68934E+12
      3131    10410.4  1.11038E+09  1.77638E+12
      3132    10490.5  1.16072E+09  1.86735E+12
      3133    10570.6  1.21297E+09  1.96242E+12
      3134    10650.7  1.26713E+09  2.06174E+12
      3135    10730.7  1.32301E+09  2.16548E+12
      3136    10810.8  1.38219E+09  2.27381E+12
      3137    10890.9  1.44230E+09  2.38691E+12
      3138    10971.0  1.50552E+09  2.50495E+12
      3139    11051.1  1.57099E+09  2.62813E+12
      3140    11131.1  1.63845E+09  2.75664E+12
      3141    11211.2  1.70855E+09  2.89067E+12
      3142    11291.3  1.78100E+09  3.03045E+12
      3143    11371.4  1.85736E+09  3.17617E+12
      3144    11451.5  1.93647E+09  3.32806E+12
      3145    11531.5  2.01668E+09  3.48635E+12
      3146    11611.6  2.10137E+09  3.65127E+12
      3147    11691.7  2.18849E+09  3.82305E+12
      3148    11771.8  2.27946E+09  4.00196E+12
      3149    11851.9  2.37255E+09  4.18824E+12
      3150    11931.9  2.47001E+09  4.38216E+12
      3151    12012.0  2.57010E+09  4.58399E+12
      3152    12092.1  2.67402E+09  4.79402E+12
      3153    12172.2  2.78283E+09  5.01254E+12
      3154    12252.3  2.89299E+09  5.23982E+12
      3155    12332.3  3.00828E+09  5.47619E+12
      3156    12412.4  3.12899E+09  5.72197E+12
      3157    12492.5  3.25296E+09  5.97747E+12
      3158    12572.6  3.38010E+09  6.24304E+12
      3159    12652.7  3.51078E+09  6.51901E+12
      3160    12732.7  3.64920E+09  6.80576E+12
      3161    12812.8  3.78973E+09  7.10361E+12
      3162    12892.9  3.93567E+09  7.41298E+12
      3163    12973.0  4.08714E+09  7.73424E+12
      3164    13053.1  4.24359E+09  8.06778E+12
      3165    13133.1  4.40395E+09  8.41402E+12
      3166    13213.2  4.56945E+09  8.77338E+12
      3167    13293.3  4.74348E+09  9.14629E+12
      3168    13373.4  4.91994E+09  9.53319E+12
      3169    13453.5  5.10305E+09  9.93455E+12
      3170    13533.5  5.29387E+09  1.03508E+13
      3171    13613.6  5.48909E+09  1.07825E+13
      3172    13693.7  5.68881E+09  1.12301E+13
      3173    13773.8  5.89616E+09  1.16941E+13
      3174    13853.9  6.11332E+09  1.21751E+13
      3175    13933.9  6.33441E+09  1.26735E+13
      3176    14014.0  6.56286E+09  1.31900E+13
      3177    14094.1  6.80020E+09  1.37250E+13
      3178    14174.2  7.04236E+09  1.42793E+13
      3179    14254.3  7.29295E+09  1.48533E+13
      3180    14334.3  7.55023E+09  1.54477E+13
      3181    14414.4  7.81815E+09  1.60632E+13
      3182    14494.5  8.09311E+09  1.67003E+13
      3183    14574.6  8.37637E+09  1.73599E+13
      3184    14654.7  8.67021E+09  1.80424E+13
      3185    14734.7  8.96946E+09  1.87487E+13
      3186    14814.8  9.27896E+09  1.94794E+13
      3187    14894.9  9.60095E+09  2.02353E+13
      3188    14975.0  9.92929E+09  2.10172E+13
      3189    15055.1  1.02896E+10  2.18773E+13
      3190    15135.1  1.06367E+10  2.27151E+13
      3191    15215.2  1.09978E+10  2.35814E+13
      3192    15295.3  1.13724E+10  2.44770E+13
      3193    15375.4  1.17497E+10  2.54026E+13
      3194    15455.5  1.21430E+10  2.63593E+13
      3195    15535.5  1.25482E+10  2.73478E+13
      3196    15615.6  1.29636E+10  2.83691E+13
      3197    15695.7  1.33907E+10  2.94243E+13
      3198    15775.8  1.38296E+10  3.05141E+13
      3199    15855.9  1.42845E+10  3.16398E+13
      3200    15935.9  1.47485E+10  3.28022E+13
      3201    16016.0  1.52294E+10  3.40024E+13
      3202    16096.1  1.57225E+10  3.52416E+13
      3203    16176.2  1.62277E+10  3.65207E+13
      3204    16256.3  1.67466E+10  3.78410E+13
      3205    16336.3  1.72851E+10  3.92036E+13
      3206    16416.4  1.78375E+10  4.06096E+13
      3207    16496.5  1.83968E+10  4.20604E+13
      3208    16576.6  1.89810E+10  4.35571E+13
      3209    16656.7  1.95823E+10  4.51010E+13
      3210    16736.7  2.01917E+10  4.66934E+13
      3211    16816.8  2.08210E+10  4.83357E+13
      3212    16896.9  2.14744E+10  5.00292E+13
      3213    16977.0  2.21419E+10  5.17752E+13
      3214    17057.1  2.28198E+10  5.35753E+13
      3215    17137.1  2.35254E+10  5.54310E+13
      3216    17217.2  2.42497E+10  5.73436E+13
      3217    17297.3  2.49855E+10  5.93148E+13
      3218    17377.4  2.57439E+10  6.13460E+13
      3219    17457.5  2.65291E+10  6.34390E+13
      3220    17537.5  2.73298E+10  6.55953E+13
      3221    17617.6  2.81509E+10  6.78167E+13
      3222    17697.7  2.89996E+10  7.01048E+13
      3223    17777.8  2.98673E+10  7.24614E+13
      3224    17857.9  3.07489E+10  7.48883E+13
      3225    17937.9  3.16644E+10  7.73874E+13
      3226    18018.0  3.26072E+10  7.99605E+13
      3227    18098.1  3.35632E+10  8.26095E+13
      3228    18178.2  3.45469E+10  8.53364E+13
      3229    18258.3  3.55604E+10  8.81433E+13
      3230    18338.3  3.65990E+10  9.10321E+13
      3231    18418.4  3.76555E+10  9.40049E+13
      3232    18498.5  3.87513E+10  9.70641E+13
      3233    18578.6  3.98729E+10  1.00212E+14
      3234    18658.7  4.10128E+10  1.03450E+14
      3235    18738.7  4.21919E+10  1.06781E+14
      3236    18818.8  4.34021E+10  1.10207E+14
      3237    18898.9  4.46351E+10  1.13731E+14
      3238    18979.0  4.58905E+10  1.17355E+14
      3239    19059.1  4.71939E+10  1.21082E+14
      3240    19139.1  4.85310E+10  1.24914E+14
      3241    19219.2  4.98792E+10  1.28854E+14
      3242    19299.3  5.12850E+10  1.32904E+14
      3243    19379.4  5.27225E+10  1.37067E+14
      3244    19459.5  5.41833E+10  1.41346E+14
      3245    19539.5  5.56769E+10  1.45744E+14
      3246    19619.6  5.72210E+10  1.50264E+14
      3247    19699.7  5.87956E+10  1.54908E+14
      3248    19779.8  6.04066E+10  1.59680E+14
      3249    19859.9  6.20625E+10  1.64582E+14
      3250    19939.9  6.37553E+10  1.69619E+14
      3251    20020.0  6.55999E+10  1.75120E+14
      3252    20100.1  6.73657E+10  1.80443E+14
      3253    20180.2  6.91818E+10  1.85909E+14
      3254    20260.3  7.10505E+10  1.91523E+14
      3255    20340.3  7.29579E+10  1.97288E+14
      3256    20420.4  7.48985E+10  2.03207E+14
      3257    20500.5  7.69003E+10  2.09284E+14
      3258    20580.6  7.89513E+10  2.15523E+14
      3259    20660.7  8.10306E+10  2.21927E+14
      3260    20740.7  8.31700E+10  2.28501E+14
      3261    20820.8  8.53737E+10  2.35248E+14
      3262    20900.9  8.76090E+10  2.42172E+14
      3263    20981.0  8.98828E+10  2.49277E+14
      3264    21061.1  9.22409E+10  2.56569E+14
      3265    21141.1  9.46481E+10  2.64050E+14
      3266    21221.2  9.70885E+10  2.71725E+14
      3267    21301.3  9.96016E+10  2.79599E+14
      3268    21381.4  1.02174E+11  2.87676E+14
      3269    21461.5  1.04792E+11  2.95961E+14
      3270    21541.5  1.07474E+11  3.04459E+14
      3271    21621.6  1.10231E+11  3.13173E+14
      3272    21701.7  1.13034E+11  3.22110E+14
      3273    21781.8  1.15886E+11  3.31274E+14
      3274    21861.9  1.18838E+11  3.40671E+14
      3275    21941.9  1.21844E+11  3.50305E+14
      3276    22022.0  1.24891E+11  3.60181E+14
      3277    22102.1  1.28026E+11  3.70306E+14
      3278    22182.2  1.31247E+11  3.80685E+14
      3279    22262.3  1.34514E+11  3.91322E+14
      3280    22342.3  1.37841E+11  4.02225E+14
      3281    22422.4  1.41281E+11  4.13398E+14
      3282    22502.5  1.44778E+11  4.24848E+14
      3283    22582.6  1.48332E+11  4.36581E+14
      3284    22662.7  1.51987E+11  4.48602E+14
      3285    22742.7  1.55721E+11  4.60919E+14
      3286    22822.8  1.59516E+11  4.73537E+14
      3287    22902.9  1.63400E+11  4.86463E+14
      3288    22983.0  1.67392E+11  4.99704E+14
      3289    23063.1  1.71444E+11  5.13266E+14
      3290    23143.1  1.75572E+11  5.27157E+14
      3291    23223.2  1.79818E+11  5.41383E+14
      3292    23303.3  1.84156E+11  5.55951E+14
      3293    23383.4  1.88552E+11  5.70870E+14
      3294    23463.5  1.93047E+11  5.86145E+14
      3295    23543.5  1.97680E+11  6.01785E+14
      3296    23623.6  2.02374E+11  6.17797E+14
      3297    23703.7  2.07156E+11  6.34189E+14
      3298    23783.8  2.12068E+11  6.50970E+14
      3299    23863.9  2.17078E+11  6.68147E+14
      3300    23943.9  2.22157E+11  6.85728E+14
      3301    24024.0  2.27386E+11  7.03723E+14
      3302    24104.1  2.32725E+11  7.22139E+14
      3303    24184.2  2.38131E+11  7.40985E+14
      3304    24264.3  2.43659E+11  7.60270E+14
      3305    24344.3  2.49346E+11  7.80003E+14
      3306    24424.4  2.55112E+11  8.00194E+14
      3307    24504.5  2.60974E+11  8.20851E+14
      3308    24584.6  2.66990E+11  8.41984E+14
      3309    24664.7  2.73142E+11  8.63604E+14
      3310    24744.7  2.79379E+11  8.85719E+14
      3311    24824.8  2.85747E+11  9.08339E+14
      3312    24904.9  2.92284E+11  9.31476E+14
      3313    24985.0  2.98929E+11  9.55140E+14
      3314    25065.1  3.06122E+11  9.80871E+14
      3315    25145.1  3.13000E+11  1.00565E+15
      3316    25225.2  3.20095E+11  1.03100E+15
      3317    25305.3  3.27317E+11  1.05691E+15
      3318    25385.4  3.34616E+11  1.08340E+15
      3319    25465.5  3.42112E+11  1.11049E+15
      3320    25545.5  3.49779E+11  1.13818E+15
      3321    25625.6  3.57536E+11  1.16649E+15
      3322    25705.7  3.65454E+11  1.19543E+15
      3323    25785.8  3.73579E+11  1.22502E+15
      3324    25865.9  3.81835E+11  1.25525E+15
      3325    25945.9  3.90222E+11  1.28615E+15
      3326    26026.0  3.98817E+11  1.31774E+15
      3327    26106.1  4.07591E+11  1.35001E+15
      3328    26186.2  4.16480E+11  1.38300E+15
      3329    26266.3  4.25537E+11  1.41670E+15
      3330    26346.3  4.34845E+11  1.45114E+15
      3331    26426.4  4.44288E+11  1.48632E+15
      3332    26506.5  4.53873E+11  1.52227E+15
      3333    26586.6  4.63696E+11  1.55900E+15
      3334    26666.7  4.73720E+11  1.59652E+15
      3335    26746.7  4.83857E+11  1.63485E+15
      3336    26826.8  4.94226E+11  1.67400E+15
      3337    26906.9  5.04851E+11  1.71399E+15
      3338    26987.0  5.15592E+11  1.75483E+15
      3339    27067.1  5.26560E+11  1.79654E+15
      3340    27147.1  5.37783E+11  1.83914E+15
      3341    27227.2  5.49177E+11  1.88265E+15
      3342    27307.3  5.60743E+11  1.92707E+15
      3343    27387.4  5.72583E+11  1.97243E+15
      3344    27467.5  5.84667E+11  2.01875E+15
      3345    27547.5  5.96908E+11  2.06604E+15
      3346    27627.6  6.09388E+11  2.11432E+15
      3347    27707.7  6.22153E+11  2.16362E+15
      3348    27787.8  6.35117E+11  2.21394E+15
      3349    27867.9  6.48279E+11  2.26530E+15
      3350    27947.9  6.61755E+11  2.31774E+15
      3351    28028.0  6.75476E+11  2.37126E+15
      3352    28108.1  6.89390E+11  2.42588E+15
      3353    28188.2  7.03565E+11  2.48164E+15
      3354    28268.3  7.18083E+11  2.53854E+15
      3355    28348.3  7.32772E+11  2.59661E+15
      3356    28428.4  7.47734E+11  2.65586E+15
      3357    28508.5  7.63037E+11  2.71633E+15
      3358    28588.6  7.78579E+11  2.77803E+15
      3359    28668.7  7.94340E+11  2.84098E+15
      3360    28748.7  8.10442E+11  2.90522E+15
      3361    28828.8  8.26891E+11  2.97075E+15
      3362    28908.9  8.43548E+11  3.03760E+15
      3363    28989.0  8.60499E+11  3.10581E+15
      3364    29069.1  8.77835E+11  3.17538E+15
      3365    29149.1  8.95408E+11  3.24635E+15
      3366    29229.2  9.13263E+11  3.31874E+15
      3367    29309.3  9.31504E+11  3.39257E+15
      3368    29389.4  9.50084E+11  3.46788E+15
      3369    29469.5  9.68867E+11  3.54468E+15
      3370    29549.5  9.88084E+11  3.62301E+15
      3371    29629.6  1.00770E+12  3.70289E+15
      3372    29709.7  1.02753E+12  3.78434E+15
      3373    29789.8  1.04770E+12  3.86740E+15
      3374    29869.9  1.06836E+12  3.95209E+15
      3375    29949.9  1.08930E+12  4.03845E+15
      3376    30030.0  1.11194E+12  4.13205E+15
      3377    30110.1  1.13354E+12  4.22192E+15
      3378    30190.2  1.15565E+12  4.31354E+15
      3379    30270.3  1.17815E+12  4.40695E+15
      3380    30350.4  1.20092E+12  4.50216E+15
      3381    30430.4  1.22410E+12  4.59922E+15
      3382    30510.5  1.24778E+12  4.69816E+15
      3383    30590.6  1.27182E+12  4.79900E+15
      3384    30670.7  1.29619E+12  4.90177E+15
      3385    30750.8  1.32109E+12  5.00653E+15
      3386    30830.8  1.34638E+12  5.11328E+15
      3387    30910.9  1.37203E+12  5.22208E+15
      3388    30991.0  1.39815E+12  5.33295E+15
      3389    31071.1  1.42483E+12  5.44593E+15
      3390    31151.2  1.45180E+12  5.56106E+15
      3391    31231.2  1.47920E+12  5.67837E+15
      3392    31311.3  1.50722E+12  5.79789E+15
      3393    31391.4  1.53562E+12  5.91967E+15
      3394    31471.5  1.56442E+12  6.04374E+15
      3395    31551.6  1.59378E+12  6.17014E+15
      3396    31631.6  1.62373E+12  6.29891E+15
      3397    31711.7  1.65402E+12  6.43009E+15
      3398    31791.8  1.68481E+12  6.56372E+15
      3399    31871.9  1.71623E+12  6.69984E+15
      3400    31952.0  1.74810E+12  6.83848E+15
      3401    32032.0  1.78043E+12  6.97970E+15
      3402    32112.1  1.81336E+12  7.12353E+15
      3403    32192.2  1.84690E+12  7.27002E+15
      3404    32272.3  1.88085E+12  7.41921E+15
      3405    32352.4  1.91537E+12  7.57115E+15
      3406    32432.4  1.95058E+12  7.72587E+15
      3407    32512.5  1.98625E+12  7.88342E+15
      3408    32592.6  2.02244E+12  8.04386E+15
      3409    32672.7  2.05938E+12  8.20723E+15
      3410    32752.8  2.09690E+12  8.37356E+15
      3411    32832.8  2.13483E+12  8.54292E+15
      3412    32912.9  2.17354E+12  8.71536E+15
      3413    32993.0  2.21293E+12  8.89091E+15
      3414    33073.1  2.25281E+12  9.06963E+15
      3415    33153.2  2.29329E+12  9.25157E+15
      3416    33233.2  2.33458E+12  9.43679E+15
      3417    33313.3  2.37644E+12  9.62533E+15
      3418    33393.4  2.41888E+12  9.81724E+15
      3419    33473.5  2.46211E+12  1.00126E+16
      3420    33553.6  2.50610E+12  1.02114E+16
      3421    33633.6  2.55056E+12  1.04138E+16
      3422    33713.7  2.59579E+12  1.06198E+16
      3423    33793.8  2.64194E+12  1.08294E+16
      3424    33873.9  2.68864E+12  1.10427E+16
      3425    33954.0  2.73592E+12  1.12598E+16
      3426    34034.0  2.78419E+12  1.14807E+16
      3427    34114.1  2.83321E+12  1.17055E+16
      3428    34194.2  2.88279E+12  1.19343E+16
      3429    34274.3  2.93326E+12  1.21671E+16
      3430    34354.4  2.98463E+12  1.24039E+16
      3431    34434.4  3.03662E+12  1.26449E+16
      3432    34514.5  3.08945E+12  1.28901E+16
      3433    34594.6  3.14318E+12  1.31395E+16
      3434    34674.7  3.19767E+12  1.33933E+16
      3435    34754.8  3.25291E+12  1.36514E+16
      3436    34834.8  3.30911E+12  1.39140E+16
      3437    34914.9  3.36624E+12  1.41812E+16
      3438    34995.0  3.42407E+12  1.44529E+16
      3439    35075.1  3.48658E+12  1.47468E+16
      3440    35155.2  3.54624E+12  1.50282E+16
      3441    35235.2  3.60701E+12  1.53145E+16
      3442    35315.3  3.66858E+12  1.56057E+16
      3443    35395.4  3.73089E+12  1.59018E+16
      3444    35475.5  3.79444E+12  1.62030E+16
      3445    35555.6  3.85896E+12  1.65093E+16
      3446    35635.6  3.92417E+12  1.68207E+16
      3447    35715.7  3.99048E+12  1.71375E+16
      3448    35795.8  4.05796E+12  1.74596E+16
      3449    35875.9  4.12622E+12  1.77871E+16
      3450    35956.0  4.19547E+12  1.81202E+16
      3451    36036.0  4.26595E+12  1.84588E+16
      3452    36116.1  4.33744E+12  1.88031E+16
      3453    36196.2  4.40983E+12  1.91532E+16
      3454    36276.3  4.48342E+12  1.95091E+16
      3455    36356.4  4.55815E+12  1.98709E+16
      3456    36436.4  4.63383E+12  2.02388E+16
      3457    36516.5  4.71066E+12  2.06127E+16
      3458    36596.6  4.78881E+12  2.09929E+16
      3459    36676.7  4.86797E+12  2.13794E+16
      3460    36756.8  4.94806E+12  2.17722E+16
      3461    36836.8  5.02961E+12  2.21715E+16
      3462    36916.9  5.11243E+12  2.25774E+16
      3463    36997.0  5.19611E+12  2.29899E+16
      3464    37077.1  5.28119E+12  2.34092E+16
      3465    37157.2  5.36768E+12  2.38354E+16
      3466    37237.2  5.45518E+12  2.42685E+16
      3467    37317.3  5.54390E+12  2.47087E+16
      3468    37397.4  5.63408E+12  2.51560E+16
      3469    37477.5  5.72559E+12  2.56106E+16
      3470    37557.6  5.81818E+12  2.60726E+16
      3471    37637.6  5.91227E+12  2.65421E+16
      3472    37717.7  6.00782E+12  2.70191E+16
      3473    37797.8  6.10447E+12  2.75038E+16
      3474    37877.9  6.20255E+12  2.79963E+16
      3475    37958.0  6.30220E+12  2.84968E+16
      3476    38038.0  6.40323E+12  2.90052E+16
      3477    38118.1  6.50541E+12  2.95218E+16
      3478    38198.2  6.60932E+12  3.00467E+16
      3479    38278.3  6.71483E+12  3.05799E+16
      3480    38358.4  6.82141E+12  3.11216E+16
      3481    38438.4  6.92976E+12  3.16719E+16
      3482    38518.5  7.03968E+12  3.22309E+16
      3483    38598.6  7.15099E+12  3.27988E+16
      3484    38678.7  7.26381E+12  3.33757E+16
      3485    38758.8  7.37843E+12  3.39617E+16
      3486    38838.8  7.49462E+12  3.45569E+16
      3487    38918.9  7.61210E+12  3.51614E+16
      3488    38999.0  7.73156E+12  3.57755E+16
      3489    39079.1  7.85269E+12  3.63991E+16
      3490    39159.2  7.97533E+12  3.70325E+16
      3491    39239.2  8.09959E+12  3.76758E+16
      3492    39319.3  8.22589E+12  3.83292E+16
      3493    39399.4  8.35386E+12  3.89926E+16
      3494    39479.5  8.48321E+12  3.96664E+16
      3495    39559.6  8.61466E+12  4.03507E+16
      3496    39639.6  8.74798E+12  4.10455E+16
      3497    39719.7  8.88284E+12  4.17510E+16
      3498    39799.8  9.01972E+12  4.24675E+16
      3499    39879.9  9.15865E+12  4.31949E+16
      3500    39960.0  9.29920E+12  4.39336E+16
      3501    40040.0  9.45066E+12  4.47308E+16
      3502    40120.1  9.59510E+12  4.54930E+16
      3503    40200.2  9.74181E+12  4.62668E+16
      3504    40280.3  9.89038E+12  4.70525E+16
      3505    40360.4  1.00408E+13  4.78501E+16
      3506    40440.4  1.01934E+13  4.86598E+16
      3507    40520.5  1.03482E+13  4.94819E+16
      3508    40600.6  1.05047E+13  5.03164E+16
      3509    40680.7  1.06635E+13  5.11635E+16
      3510    40760.8  1.08245E+13  5.20234E+16
      3511    40840.8  1.09877E+13  5.28963E+16
      3512    40920.9  1.11527E+13  5.37823E+16
      3513    41001.0  1.13202E+13  5.46816E+16
      3514    41081.1  1.14902E+13  5.55944E+16
      3515    41161.2  1.16619E+13  5.65209E+16
      3516    41241.2  1.18361E+13  5.74613E+16
      3517    41321.3  1.20128E+13  5.84157E+16
      3518    41401.4  1.21916E+13  5.93843E+16
      3519    41481.5  1.23726E+13  6.03673E+16
      3520    41561.6  1.25564E+13  6.13649E+16
      3521    41641.6  1.27426E+13  6.23773E+16
      3522    41721.7  1.29308E+13  6.34047E+16
      3523    41801.8  1.31217E+13  6.44473E+16
      3524    41881.9  1.33154E+13  6.55052E+16
      3525    41962.0  1.35113E+13  6.65788E+16
      3526    42042.0  1.37096E+13  6.76681E+16
      3527    42122.1  1.39110E+13  6.87734E+16
      3528    42202.2  1.41147E+13  6.98949E+16
      3529    42282.3  1.43208E+13  7.10328E+16
      3530    42362.4  1.45299E+13  7.21874E+16
      3531    42442.4  1.47418E+13  7.33587E+16
      3532    42522.5  1.49562E+13  7.45472E+16
      3533    42602.6  1.51733E+13  7.57529E+16
      3534    42682.7  1.53935E+13  7.69761E+16
      3535    42762.8  1.56164E+13  7.82170E+16
      3536    42842.8  1.58419E+13  7.94759E+16
      3537    42922.9  1.60706E+13  8.07530E+16
      3538    43003.0  1.63023E+13  8.20484E+16
      3539    43083.1  1.65366E+13  8.33625E+16
      3540    43163.2  1.67741E+13  8.46955E+16
      3541    43243.2  1.70148E+13  8.60477E+16
      3542    43323.3  1.72582E+13  8.74192E+16
      3543    43403.4  1.75047E+13  8.88103E+16
      3544    43483.5  1.77546E+13  9.02213E+16
      3545    43563.6  1.80076E+13  9.16524E+16
      3546    43643.6  1.82635E+13  9.31038E+16
      3547    43723.7  1.85229E+13  9.45759E+16
      3548    43803.8  1.87857E+13  9.60689E+16
      3549    43883.9  1.90515E+13  9.75830E+16
      3550    43964.0  1.93207E+13  9.91186E+16
      3551    44044.0  1.95935E+13  1.00676E+17
      3552    44124.1  1.98696E+13  1.02255E+17
      3553    44204.2  2.01488E+13  1.03856E+17
      3554    44284.3  2.04319E+13  1.05480E+17
      3555    44364.4  2.07184E+13  1.07127E+17
      3556    44444.4  2.10083E+13  1.08797E+17
      3557    44524.5  2.13018E+13  1.10490E+17
      3558    44604.6  2.15994E+13  1.12207E+17
      3559    44684.7  2.19003E+13  1.13947E+17
      3560    44764.8  2.22048E+13  1.15712E+17
      3561    44844.8  2.25135E+13  1.17502E+17
      3562    44924.9  2.28257E+13  1.19316E+17
      3563    45005.0  2.31616E+13  1.21271E+17
      3564    45085.1  2.34816E+13  1.23138E+17
      3565    45165.2  2.38057E+13  1.25030E+17
      3566    45245.2  2.41341E+13  1.26949E+17
      3567    45325.3  2.44660E+13  1.28893E+17
      3568    45405.4  2.48019E+13  1.30865E+17
      3569    45485.5  2.51424E+13  1.32863E+17
      3570    45565.6  2.54868E+13  1.34889E+17
      3571    45645.6  2.58350E+13  1.36943E+17
      3572    45725.7  2.61879E+13  1.39025E+17
      3573    45805.8  2.65452E+13  1.41135E+17
      3574    45885.9  2.69064E+13  1.43274E+17
      3575    45966.0  2.72720E+13  1.45442E+17
      3576    46046.0  2.76425E+13  1.47640E+17
      3577    46126.1  2.80170E+13  1.49867E+17
      3578    46206.2  2.83957E+13  1.52124E+17
      3579    46286.3  2.87797E+13  1.54412E+17
      3580    46366.4  2.91681E+13  1.56731E+17
      3581    46446.4  2.95607E+13  1.59081E+17
      3582    46526.5  2.99582E+13  1.61463E+17
      3583    46606.6  3.03608E+13  1.63877E+17
      3584    46686.7  3.07676E+13  1.66323E+17
      3585    46766.8  3.11795E+13  1.68802E+17
      3586    46846.8  3.15967E+13  1.71314E+17
      3587    46926.9  3.20184E+13  1.73859E+17
      3588    47007.0  3.24448E+13  1.76439E+17
      3589    47087.1  3.28769E+13  1.79053E+17
      3590    47167.2  3.33140E+13  1.81701E+17
      3591    47247.2  3.37556E+13  1.84385E+17
      3592    47327.3  3.42030E+13  1.87105E+17
      3593    47407.4  3.46558E+13  1.89860E+17
      3594    47487.5  3.51135E+13  1.92652E+17
      3595    47567.6  3.55764E+13  1.95481E+17
      3596    47647.6  3.60453E+13  1.98347E+17
      3597    47727.7  3.65194E+13  2.01251E+17
      3598    47807.8  3.69986E+13  2.04192E+17
      3599    47887.9  3.74838E+13  2.07173E+17
      3600    47968.0  3.79751E+13  2.10192E+17
      3601    48048.0  3.84715E+13  2.13251E+17
      3602    48128.1  3.89736E+13  2.16351E+17
      3603    48208.2  3.94818E+13  2.19490E+17
      3604    48288.3  3.99958E+13  2.22670E+17
      3605    48368.4  4.05155E+13  2.25892E+17
      3606    48448.4  4.10416E+13  2.29156E+17
      3607    48528.5  4.15739E+13  2.32461E+17
      3608    48608.6  4.21117E+13  2.35810E+17
      3609    48688.7  4.26557E+13  2.39202E+17
      3610    48768.8  4.32066E+13  2.42638E+17
      3611    48848.8  4.37633E+13  2.46118E+17
      3612    48928.9  4.43262E+13  2.49643E+17
      3613    49009.0  4.48960E+13  2.53213E+17
      3614    49089.1  4.54723E+13  2.56829E+17
      3615    49169.2  4.60544E+13  2.60492E+17
      3616    49249.2  4.66438E+13  2.64201E+17
      3617    49329.3  4.72401E+13  2.67958E+17
      3618    49409.4  4.78425E+13  2.71763E+17
      3619    49489.5  4.84518E+13  2.75616E+17
      3620    49569.6  4.90686E+13  2.79518E+17
      3621    49649.6  4.96921E+13  2.83470E+17
      3622    49729.7  5.03221E+13  2.87472E+17
      3623    49809.8  5.09596E+13  2.91525E+17
      3624    49889.9  5.16047E+13  2.95629E+17
      3625    49970.0  5.22562E+13  2.99785E+17
      3626    50050.1  5.29567E+13  3.04259E+17
      3627    50130.1  5.36237E+13  3.08524E+17
      3628    50210.2  5.42986E+13  3.12842E+17
      3629    50290.3  5.49806E+13  3.17215E+17
      3630    50370.4  5.56698E+13  3.21643E+17
      3631    50450.5  5.63673E+13  3.26126E+17
      3632    50530.5  5.70724E+13  3.30665E+17
      3633    50610.6  5.77852E+13  3.35261E+17
      3634    50690.7  5.85059E+13  3.39915E+17
      3635    50770.8  5.92350E+13  3.44626E+17
      3636    50850.9  5.99717E+13  3.49396E+17
      3637    50930.9  6.07163E+13  3.54225E+17
      3638    51011.0  6.14698E+13  3.59115E+17
      3639    51091.1  6.22312E+13  3.64064E+17
      3640    51171.2  6.30007E+13  3.69076E+17
      3641    51251.3  6.37789E+13  3.74149E+17
      3642    51331.3  6.45662E+13  3.79284E+17
      3643    51411.4  6.53612E+13  3.84483E+17
      3644    51491.5  6.61649E+13  3.89746E+17
      3645    51571.6  6.69785E+13  3.95074E+17
      3646    51651.7  6.77999E+13  4.00467E+17
      3647    51731.7  6.86303E+13  4.05926E+17
      3648    51811.8  6.94701E+13  4.11453E+17
      3649    51891.9  7.03195E+13  4.17046E+17
      3650    51972.0  7.11769E+13  4.22708E+17
      3651    52052.1  7.20444E+13  4.28439E+17
      3652    52132.1  7.29212E+13  4.34240E+17
      3653    52212.2  7.38072E+13  4.40111E+17
      3654    52292.3  7.47027E+13  4.46054E+17
      3655    52372.4  7.56084E+13  4.52068E+17
      3656    52452.5  7.65234E+13  4.58156E+17
      3657    52532.5  7.74478E+13  4.64317E+17
      3658    52612.6  7.83828E+13  4.70552E+17
      3659    52692.7  7.93281E+13  4.76863E+17
      3660    52772.8  8.02827E+13  4.83250E+17
      3661    52852.9  8.12478E+13  4.89713E+17
      3662    52932.9  8.22237E+13  4.96255E+17
      3663    53013.0  8.32094E+13  5.02874E+17
      3664    53093.1  8.42053E+13  5.09573E+17
      3665    53173.2  8.52126E+13  5.16352E+17
      3666    53253.3  8.62302E+13  5.23213E+17
      3667    53333.3  8.72583E+13  5.30155E+17
      3668    53413.4  8.82976E+13  5.37179E+17
      3669    53493.5  8.93482E+13  5.44288E+17
      3670    53573.6  9.04095E+13  5.51481E+17
      3671    53653.7  9.14817E+13  5.58759E+17
      3672    53733.7  9.25657E+13  5.66124E+17
      3673    53813.8  9.36612E+13  5.73575E+17
      3674    53893.9  9.47677E+13  5.81115E+17
      3675    53974.0  9.58860E+13  5.88744E+17
      3676    54054.1  9.70164E+13  5.96463E+17
      3677    54134.1  9.81577E+13  6.04273E+17
      3678    54214.2  9.93114E+13  6.12174E+17
      3679    54294.3  1.00478E+14  6.20169E+17
      3680    54374.4  1.01656E+14  6.28257E+17
      3681    54454.5  1.02846E+14  6.36440E+17
      3682    54534.5  1.04048E+14  6.44718E+17
      3683    54614.6  1.05264E+14  6.53094E+17
      3684    54694.7  1.06491E+14  6.61567E+17
      3685    54774.8  1.07732E+14  6.70139E+17
      3686    54854.9  1.08985E+14  6.78811E+17
      3687    54934.9  1.10251E+14  6.87583E+17
      3688    55015.0  1.11611E+14  6.97016E+17
      3689    55095.1  1.12904E+14  7.05999E+17
      3690    55175.2  1.14211E+14  7.15087E+17
      3691    55255.3  1.15530E+14  7.24280E+17
      3692    55335.3  1.16864E+14  7.33579E+17
      3693    55415.4  1.18211E+14  7.42985E+17
      3694    55495.5  1.19572E+14  7.52500E+17
      3695    55575.6  1.20947E+14  7.62124E+17
      3696    55655.7  1.22335E+14  7.71859E+17
      3697    55735.7  1.23739E+14  7.81705E+17
      3698    55815.8  1.25156E+14  7.91664E+17
      3699    55895.9  1.26587E+14  8.01737E+17
      3700    55976.0  1.28034E+14  8.11926E+17
      3701    56056.1  1.29495E+14  8.22231E+17
      3702    56136.1  1.30970E+14  8.32653E+17
      3703    56216.2  1.32461E+14  8.43194E+17
      3704    56296.3  1.33967E+14  8.53854E+17
      3705    56376.4  1.35488E+14  8.64636E+17
      3706    56456.5  1.37024E+14  8.75541E+17
      3707    56536.5  1.38576E+14  8.86568E+17
      3708    56616.6  1.40144E+14  8.97721E+17
      3709    56696.7  1.41726E+14  9.09000E+17
      3710    56776.8  1.43325E+14  9.20406E+17
      3711    56856.9  1.44940E+14  9.31940E+17
      3712    56936.9  1.46571E+14  9.43604E+17
      3713    57017.0  1.48218E+14  9.55400E+17
      3714    57097.1  1.49882E+14  9.67328E+17
      3715    57177.2  1.51563E+14  9.79390E+17
      3716    57257.3  1.53260E+14  9.91587E+17
      3717    57337.3  1.54974E+14  1.00392E+18
      3718    57417.4  1.56705E+14  1.01639E+18
      3719    57497.5  1.58453E+14  1.02900E+18
      3720    57577.6  1.60218E+14  1.04175E+18
      3721    57657.7  1.62001E+14  1.05465E+18
      3722    57737.7  1.63802E+14  1.06768E+18
      3723    57817.8  1.65620E+14  1.08086E+18
      3724    57897.9  1.67457E+14  1.09419E+18
      3725    57978.0  1.69311E+14  1.10767E+18
      3726    58058.1  1.71183E+14  1.12129E+18
      3727    58138.1  1.73074E+14  1.13507E+18
      3728    58218.2  1.74984E+14  1.14899E+18
      3729    58298.3  1.76912E+14  1.16307E+18
      3730    58378.4  1.78858E+14  1.17731E+18
      3731    58458.5  1.80825E+14  1.19170E+18
      3732    58538.5  1.82810E+14  1.20625E+18
      3733    58618.6  1.84814E+14  1.22096E+18
      3734    58698.7  1.86839E+14  1.23583E+18
      3735    58778.8  1.88883E+14  1.25087E+18
      3736    58858.9  1.90946E+14  1.26606E+18
      3737    58938.9  1.93029E+14  1.28143E+18
      3738    59019.0  1.95133E+14  1.29696E+18
      3739    59099.1  1.97257E+14  1.31266E+18
      3740    59179.2  1.99401E+14  1.32853E+18
      3741    59259.3  2.01568E+14  1.34458E+18
      3742    59339.3  2.03754E+14  1.36080E+18
      3743    59419.4  2.05961E+14  1.37719E+18
      3744    59499.5  2.08189E+14  1.39376E+18
      3745    59579.6  2.10440E+14  1.41051E+18
      3746    59659.7  2.12711E+14  1.42744E+18
      3747    59739.7  2.15003E+14  1.44456E+18
      3748    59819.8  2.17320E+14  1.46186E+18
      3749    59899.9  2.19657E+14  1.47934E+18
      3750    59980.0  2.22016E+14  1.49701E+18
      3751    60060.1  2.24548E+14  1.51600E+18
      3752    60140.1  2.26954E+14  1.53406E+18
      3753    60220.2  2.29384E+14  1.55232E+18
      3754    60300.3  2.31835E+14  1.57078E+18
      3755    60380.4  2.34310E+14  1.58943E+18
      3756    60460.5  2.36810E+14  1.60828E+18
      3757    60540.5  2.39332E+14  1.62733E+18
      3758    60620.6  2.41878E+14  1.64659E+18
      3759    60700.7  2.44449E+14  1.66605E+18
      3760    60780.8  2.47044E+14  1.68571E+18
      3761    60860.9  2.49662E+14  1.70559E+18
      3762    60940.9  2.52306E+14  1.72567E+18
      3763    61021.0  2.54976E+14  1.74597E+18
      3764    61101.1  2.57668E+14  1.76648E+18
      3765    61181.2  2.60387E+14  1.78721E+18
      3766    61261.3  2.63132E+14  1.80816E+18
      3767    61341.3  2.65902E+14  1.82933E+18
      3768    61421.4  2.68698E+14  1.85072E+18
      3769    61501.5  2.71520E+14  1.87233E+18
      3770    61581.6  2.74368E+14  1.89418E+18
      3771    61661.7  2.77243E+14  1.91625E+18
      3772    61741.7  2.80144E+14  1.93855E+18
      3773    61821.8  2.83073E+14  1.96109E+18
      3774    61901.9  2.86028E+14  1.98386E+18
      3775    61982.0  2.89011E+14  2.00687E+18
      3776    62062.1  2.92022E+14  2.03011E+18
      3777    62142.1  2.95061E+14  2.05361E+18
      3778    62222.2  2.98127E+14  2.07734E+18
      3779    62302.3  3.01221E+14  2.10132E+18
      3780    62382.4  3.04345E+14  2.12555E+18
      3781    62462.5  3.07497E+14  2.15003E+18
      3782    62542.5  3.10678E+14  2.17477E+18
      3783    62622.6  3.13889E+14  2.19976E+18
      3784    62702.7  3.17128E+14  2.22501E+18
      3785    62782.8  3.20397E+14  2.25052E+18
      3786    62862.9  3.23696E+14  2.27629E+18
      3787    62942.9  3.27026E+14  2.30232E+18
      3788    63023.0  3.30385E+14  2.32863E+18
      3789    63103.1  3.33775E+14  2.35520E+18
      3790    63183.2  3.37197E+14  2.38205E+18
      3791    63263.3  3.40648E+14  2.40917E+18
      3792    63343.3  3.44131E+14  2.43657E+18
      3793    63423.4  3.47647E+14  2.46425E+18
      3794    63503.5  3.51195E+14  2.49222E+18
      3795    63583.6  3.54773E+14  2.52046E+18
      3796    63663.7  3.58385E+14  2.54900E+18
      3797    63743.7  3.62030E+14  2.57782E+18
      3798    63823.8  3.65706E+14  2.60694E+18
      3799    63903.9  3.69415E+14  2.63636E+18
      3800    63984.0  3.73160E+14  2.66607E+18
      3801    64064.1  3.76936E+14  2.69608E+18
      3802    64144.1  3.80747E+14  2.72640E+18
      3803    64224.2  3.84592E+14  2.75702E+18
      3804    64304.3  3.88472E+14  2.78795E+18
      3805    64384.4  3.92385E+14  2.81920E+18
      3806    64464.5  3.96334E+14  2.85075E+18
      3807    64544.5  4.00320E+14  2.88263E+18
      3808    64624.6  4.04339E+14  2.91483E+18
      3809    64704.7  4.08395E+14  2.94735E+18
      3810    64784.8  4.12486E+14  2.98019E+18
      3811    64864.9  4.16615E+14  3.01336E+18
      3812    64944.9  4.20779E+14  3.04687E+18
      3813    65025.0  4.25244E+14  3.08284E+18
      3814    65105.1  4.29486E+14  3.11704E+18
      3815    65185.2  4.33765E+14  3.15158E+18
      3816    65265.3  4.38081E+14  3.18646E+18
      3817    65345.3  4.42436E+14  3.22169E+18
      3818    65425.4  4.46829E+14  3.25727E+18
      3819    65505.5  4.51261E+14  3.29321E+18
      3820    65585.6  4.55730E+14  3.32950E+18
      3821    65665.7  4.60241E+14  3.36615E+18
      3822    65745.7  4.64790E+14  3.40316E+18
      3823    65825.8  4.69378E+14  3.44054E+18
      3824    65905.9  4.74008E+14  3.47829E+18
      3825    65986.0  4.78678E+14  3.51641E+18
      3826    66066.1  4.83388E+14  3.55490E+18
      3827    66146.1  4.88140E+14  3.59377E+18
      3828    66226.2  4.92934E+14  3.63303E+18
      3829    66306.3  4.97768E+14  3.67267E+18
      3830    66386.4  5.02644E+14  3.71270E+18
      3831    66466.5  5.07564E+14  3.75312E+18
      3832    66546.5  5.12525E+14  3.79393E+18
      3833    66626.6  5.17529E+14  3.83515E+18
      3834    66706.7  5.22577E+14  3.87676E+18
      3835    66786.8  5.27670E+14  3.91878E+18
      3836    66866.9  5.32805E+14  3.96122E+18
      3837    66946.9  5.37985E+14  4.00406E+18
      3838    67027.0  5.43210E+14  4.04732E+18
      3839    67107.1  5.48479E+14  4.09100E+18
      3840    67187.2  5.53793E+14  4.13511E+18
      3841    67267.3  5.59153E+14  4.17964E+18
      3842    67347.3  5.64561E+14  4.22460E+18
      3843    67427.4  5.70013E+14  4.26999E+18
      3844    67507.5  5.75511E+14  4.31583E+18
      3845    67587.6  5.81057E+14  4.36211E+18
      3846    67667.7  5.86651E+14  4.40883E+18
      3847    67747.7  5.92291E+14  4.45600E+18
      3848    67827.8  5.97980E+14  4.50362E+18
      3849    67907.9  6.03719E+14  4.55171E+18
      3850    67988.0  6.09505E+14  4.60025E+18
      3851    68068.1  6.15340E+14  4.64926E+18
      3852    68148.1  6.21225E+14  4.69873E+18
      3853    68228.2  6.27160E+14  4.74868E+18
      3854    68308.3  6.33145E+14  4.79911E+18
      3855    68388.4  6.39180E+14  4.85002E+18
      3856    68468.5  6.45267E+14  4.90141E+18
      3857    68548.5  6.51404E+14  4.95329E+18
      3858    68628.6  6.57593E+14  5.00567E+18
      3859    68708.7  6.63835E+14  5.05854E+18
      3860    68788.8  6.70128E+14  5.11191E+18
      3861    68868.9  6.76473E+14  5.16579E+18
      3862    68948.9  6.82874E+14  5.22018E+18
      3863    69029.0  6.89329E+14  5.27509E+18
      3864    69109.1  6.95835E+14  5.33051E+18
      3865    69189.2  7.02396E+14  5.38645E+18
      3866    69269.3  7.09014E+14  5.44293E+18
      3867    69349.3  7.15685E+14  5.49993E+18
      3868    69429.4  7.22412E+14  5.55747E+18
      3869    69509.5  7.29195E+14  5.61555E+18
      3870    69589.6  7.36035E+14  5.67418E+18
      3871    69669.7  7.42930E+14  5.73335E+18
      3872    69749.7  7.49885E+14  5.79308E+18
      3873    69829.8  7.56896E+14  5.85337E+18
      3874    69909.9  7.63963E+14  5.91422E+18
      3875    69990.0  7.71091E+14  5.97564E+18
      3876    70070.1  7.78728E+14  6.04153E+18
      3877    70150.2  7.85978E+14  6.10414E+18
      3878    70230.2  7.93286E+14  6.16732E+18
      3879    70310.3  8.00654E+14  6.23110E+18
      3880    70390.4  8.08085E+14  6.29547E+18
      3881    70470.5  8.15575E+14  6.36043E+18
      3882    70550.6  8.23126E+14  6.42600E+18
      3883    70630.6  8.30740E+14  6.49217E+18
      3884    70710.7  8.38417E+14  6.55896E+18
      3885    70790.8  8.46154E+14  6.62636E+18
      3886    70870.9  8.53955E+14  6.69438E+18
      3887    70951.0  8.61821E+14  6.76303E+18
      3888    71031.0  8.69751E+14  6.83231E+18
      3889    71111.1  8.77743E+14  6.90223E+18
      3890    71191.2  8.85803E+14  6.97279E+18
      3891    71271.3  8.93927E+14  7.04400E+18
      3892    71351.4  9.02116E+14  7.11587E+18
      3893    71431.4  9.10372E+14  7.18839E+18
      3894    71511.5  9.18697E+14  7.26157E+18
      3895    71591.6  9.27087E+14  7.33542E+18
      3896    71671.7  9.35544E+14  7.40995E+18
      3897    71751.8  9.44071E+14  7.48515E+18
      3898    71831.8  9.52665E+14  7.56104E+18
      3899    71911.9  9.61329E+14  7.63762E+18
      3900    71992.0  9.70063E+14  7.71490E+18
      3901    72072.1  9.78868E+14  7.79288E+18
      3902    72152.2  9.87741E+14  7.87156E+18
      3903    72232.2  9.96686E+14  7.95096E+18
      3904    72312.3  1.00570E+15  8.03108E+18
      3905    72392.4  1.01479E+15  8.11192E+18
      3906    72472.5  1.02395E+15  8.19350E+18
      3907    72552.6  1.03319E+15  8.27580E+18
      3908    72632.6  1.04250E+15  8.35885E+18
      3909    72712.7  1.05188E+15  8.44265E+18
      3910    72792.8  1.06133E+15  8.52720E+18
      3911    72872.9  1.07087E+15  8.61252E+18
      3912    72953.0  1.08048E+15  8.69859E+18
      3913    73033.0  1.09016E+15  8.78544E+18
      3914    73113.1  1.09992E+15  8.87307E+18
      3915    73193.2  1.10976E+15  8.96148E+18
      3916    73273.3  1.11967E+15  9.05068E+18
      3917    73353.4  1.12966E+15  9.14068E+18
      3918    73433.4  1.13974E+15  9.23148E+18
      3919    73513.5  1.14989E+15  9.32309E+18
      3920    73593.6  1.16012E+15  9.41551E+18
      3921    73673.7  1.17043E+15  9.50876E+18
      3922    73753.8  1.18082E+15  9.60284E+18
      3923    73833.8  1.19130E+15  9.69775E+18
      3924    73913.9  1.20185E+15  9.79350E+18
      3925    73994.0  1.21249E+15  9.89010E+18
      3926    74074.1  1.22321E+15  9.98755E+18
      3927    74154.2  1.23402E+15  1.00859E+19
      3928    74234.2  1.24491E+15  1.01851E+19
      3929    74314.3  1.25588E+15  1.02851E+19
      3930    74394.4  1.26694E+15  1.03861E+19
      3931    74474.5  1.27808E+15  1.04879E+19
      3932    74554.6  1.28932E+15  1.05906E+19
      3933    74634.6  1.30063E+15  1.06942E+19
      3934    74714.7  1.31204E+15  1.07988E+19
      3935    74794.8  1.32354E+15  1.09042E+19
      3936    74874.9  1.33512E+15  1.10106E+19
      3937    74955.0  1.34679E+15  1.11179E+19
      3938    75035.0  1.35929E+15  1.12329E+19
      3939    75115.1  1.37115E+15  1.13422E+19
      3940    75195.2  1.38310E+15  1.14524E+19
      3941    75275.3  1.39514E+15  1.15635E+19
      3942    75355.4  1.40728E+15  1.16757E+19
      3943    75435.4  1.41951E+15  1.17888E+19
      3944    75515.5  1.43183E+15  1.19029E+19
      3945    75595.6  1.44424E+15  1.20179E+19
      3946    75675.7  1.45676E+15  1.21340E+19
      3947    75755.8  1.46936E+15  1.22511E+19
      3948    75835.8  1.48206E+15  1.23692E+19
      3949    75915.9  1.49486E+15  1.24883E+19
      3950    75996.0  1.50776E+15  1.26084E+19
      3951    76076.1  1.52075E+15  1.27296E+19
      3952    76156.2  1.53384E+15  1.28518E+19
      3953    76236.2  1.54704E+15  1.29751E+19
      3954    76316.3  1.56033E+15  1.30994E+19
      3955    76396.4  1.57372E+15  1.32248E+19
      3956    76476.5  1.58722E+15  1.33513E+19
      3957    76556.6  1.60081E+15  1.34788E+19
      3958    76636.6  1.61451E+15  1.36075E+19
      3959    76716.7  1.62831E+15  1.37372E+19
      3960    76796.8  1.64222E+15  1.38681E+19
      3961    76876.9  1.65623E+15  1.40000E+19
      3962    76957.0  1.67035E+15  1.41331E+19
      3963    77037.0  1.68457E+15  1.42674E+19
      3964    77117.1  1.69890E+15  1.44027E+19
      3965    77197.2  1.71333E+15  1.45393E+19
      3966    77277.3  1.72788E+15  1.46769E+19
      3967    77357.4  1.74253E+15  1.48158E+19
      3968    77437.4  1.75729E+15  1.49558E+19
      3969    77517.5  1.77216E+15  1.50970E+19
      3970    77597.6  1.78715E+15  1.52394E+19
      3971    77677.7  1.80224E+15  1.53831E+19
      3972    77757.8  1.81745E+15  1.55279E+19
      3973    77837.8  1.83277E+15  1.56739E+19
      3974    77917.9  1.84820E+15  1.58212E+19
      3975    77998.0  1.86375E+15  1.59697E+19
      3976    78078.1  1.87941E+15  1.61195E+19
      3977    78158.2  1.89519E+15  1.62705E+19
      3978    78238.2  1.91108E+15  1.64228E+19
      3979    78318.3  1.92709E+15  1.65764E+19
      3980    78398.4  1.94322E+15  1.67312E+19
      3981    78478.5  1.95947E+15  1.68874E+19
      3982    78558.6  1.97584E+15  1.70448E+19
      3983    78638.6  1.99233E+15  1.72036E+19
      3984    78718.7  2.00894E+15  1.73637E+19
      3985    78798.8  2.02567E+15  1.75251E+19
      3986    78878.9  2.04253E+15  1.76879E+19
      3987    78959.0  2.05950E+15  1.78520E+19
      3988    79039.0  2.07661E+15  1.80175E+19
      3989    79119.1  2.09383E+15  1.81843E+19
      3990    79199.2  2.11119E+15  1.83526E+19
      3991    79279.3  2.12866E+15  1.85222E+19
      3992    79359.4  2.14627E+15  1.86933E+19
      3993    79439.4  2.16400E+15  1.88657E+19
      3994    79519.5  2.18187E+15  1.90396E+19
      3995    79599.6  2.19986E+15  1.92149E+19
      3996    79679.7  2.21798E+15  1.93917E+19
      3997    79759.8  2.23623E+15  1.95699E+19
      3998    79839.8  2.25462E+15  1.97496E+19
      3999    79919.9  2.27314E+15  1.99307E+19
      4000    80000.0  2.29296E+15  2.01248E+19
