%%%%%%%%%%%%%%%%%%%%%%%%%%%%%%%%%%%%%%%%%%%%%%%%%%%%%%%%%%%%%%%%%%%%%%%%%%%%%%

                                        John R. Barker
              MultiWell-2023            University of Michigan
                                        Ann Arbor, MI 48109-2143
                Mar 2023                jrbarker@umich.edu
                                        (734) 763 6239

              http://clasp-research.engin.umich.edu/multiwell/

%%%%%%%%%%%%%%%%%%%%%%%%%%%%%%%%%%%%%%%%%%%%%%%%%%%%%%%%%%%%%%%%%%%%%%%%%%%%%%

        Suggested Literature Citations:

    a) J.R. Barker, T.L. Nguyen, J.F. Stanton, C. Aieta, M. Ceotto,
       F. Gabas, T.J.D. Kumar, C.G.L.Li, L.L.Lohr, A. Maranzana,
       N.F. Ortiz, J.M. Preses, J.M. Simmie, J.A. Sonk, and P.J. Stimac; 
       MultiWell-2023    Software Suite; University of Michigan, 
       Ann Arbor, Michigan, USA, Mar 2023; 
       http://clasp-research.engin.umich.edu/multiwell/.

    b) J.R. Barker, Int. J. Chem. Kinetics, 33, 232-45 (2001)

    c) J.R. Barker, Int. J. Chem. Kinetics, 41, 748-763 (2009)

%%%%%%%%%%%%%%%%%%%%%%%%%%%%%%%%%%%%%%%%%%%%%%%%%%%%%%%%%%%%%%%%%%%%%%%%%%%%%%


....................................................
          2023/03/24   07:09:56.097   (Local Time)
          year/mm/dd   hr:mi:second
                 CPU :        0.026 s (  0.000 hr)
....................................................
C2F3H3- TFE tunneling example                                                                       

PARAMETERS FOR DOUBLE-ARRAYS:
        Grain (cm-1)      Maximum Energy    Number of grains
              10.000            4990.000                 500
             200.401          100000.000                 500


TEMPERATURES:
        Translational Temperature =  2000.0 K
  Initial Vibrational Temperature =   300.0 K


  1 WELLS and  1 PRODUCTS

  Molec_No.:          1          2
 Molec_Name: C2H3F3____ C2H2F2+HF_
 delH(cm-1):        0.0    11122.2
   delH(kJ):        0.0      133.1
 delH(kcal):        0.0       31.8
 lowest_vib:      249.0
  2D-moment:       95.6
   ext_symm:          3
Qel_partfxn:       1.00
   opt_isom:          1
 Thermal<E>:    15889.4

Units: 2D-moment : amu Ang^2       Thermal<E>: cm-1 (at Translational T)

     Densities of States
     Energy  C2H3F3____
        0.0  1.100E+00
       10.0  6.000E-01
       20.0  6.000E-01
       30.0  4.000E-01
       40.0  4.000E-01
       50.0  4.000E-01
       60.0  2.000E-01
       70.0  2.000E-01
       80.0  4.000E-01
       90.0  2.000E-01
      100.0  2.000E-01
      110.0  2.000E-01
      120.0  2.000E-01
      130.0  2.000E-01
      140.0  2.000E-01
      150.0  2.000E-01
      160.0  2.000E-01
      170.0  2.000E-01
      180.0  2.000E-01
      190.0  2.000E-01
      200.0  2.000E-01
      210.0  3.975E-31
      220.0  2.000E-01
      230.0  1.300E+00
      240.0  8.000E-01
      250.0  6.000E-01
      260.0  6.000E-01
      270.0  6.000E-01
      280.0  4.000E-01
      290.0  4.000E-01
      300.0  4.000E-01
      310.0  4.000E-01
      320.0  4.000E-01
      330.0  4.000E-01
      340.0  2.000E-01
      350.0  4.000E-01
      360.0  4.000E-01
      370.0  2.000E-01
      380.0  4.000E-01
      390.0  2.400E+00
      400.0  1.600E+00
      410.0  1.400E+00
      420.0  1.200E+00
      430.0  1.200E+00
      440.0  8.000E-01
      450.0  1.900E+00
      460.0  1.200E+00
      470.0  1.800E+00
      480.0  8.000E-01
      490.0  1.200E+00
      500.0  1.000E+00
      510.0  8.000E-01
      520.0  8.000E-01
      530.0  1.200E+00
      540.0  6.000E-01
      550.0  1.000E+00
      560.0  8.000E-01
      570.0  8.000E-01
      580.0  3.000E+00
      590.0  2.200E+00
      600.0  1.400E+00
      610.0  1.800E+00
      620.0  3.600E+00
      630.0  3.000E+00
      640.0  1.800E+00
      650.0  4.200E+00
      660.0  3.600E+00
      670.0  2.600E+00
      680.0  2.600E+00
      690.0  2.200E+00
      700.0  2.400E+00
      710.0  1.800E+00
      720.0  2.200E+00
      730.0  1.600E+00
      740.0  2.000E+00
      750.0  2.000E+00
      760.0  1.400E+00
      770.0  2.000E+00
      780.0  4.900E+00
      790.0  3.000E+00
      800.0  3.600E+00
      810.0  5.200E+00
      820.0  4.400E+00
      830.0  4.100E+00
      840.0  6.200E+00
      850.0  4.600E+00
      860.0  4.600E+00
      870.0  3.400E+00
      880.0  5.100E+00
      890.0  4.000E+00
      900.0  3.400E+00
      910.0  4.700E+00
      920.0  4.600E+00
      930.0  3.200E+00
      940.0  4.000E+00
      950.0  3.400E+00
      960.0  3.400E+00
      970.0  7.933E+00
      980.0  7.000E+00
      990.0  4.400E+00
     1000.0  6.433E+00
     1010.0  8.167E+00
     1020.0  6.467E+00
     1030.0  7.667E+00
     1040.0  1.027E+01
     1050.0  1.020E+01
     1060.0  7.167E+00
     1070.0  8.000E+00
     1080.0  6.667E+00
     1090.0  8.333E+00
     1100.0  7.833E+00
     1110.0  8.333E+00
     1120.0  6.067E+00
     1130.0  7.800E+00
     1140.0  8.433E+00
     1150.0  6.467E+00
     1160.0  7.833E+00
     1170.0  1.413E+01
     1180.0  9.400E+00
     1190.0  1.020E+01
     1200.0  1.320E+01
     1210.0  1.207E+01
     1220.0  1.067E+01
     1230.0  1.850E+01
     1240.0  1.473E+01
     1250.0  1.300E+01
     1260.0  1.220E+01
     1270.0  1.360E+01
     1280.0  1.207E+01
     1290.0  1.097E+01
     1300.0  1.443E+01
     1310.0  1.307E+01
     1320.0  1.327E+01
     1330.0  1.353E+01
     1340.0  1.073E+01
     1350.0  1.153E+01
     1360.0  1.917E+01
     1370.0  1.753E+01
     1380.0  1.287E+01
     1390.0  1.703E+01
     1400.0  2.167E+01
     1410.0  2.020E+01
     1420.0  2.273E+01
     1430.0  2.530E+01
     1440.0  2.367E+01
     1450.0  1.960E+01
     1460.0  2.280E+01
     1470.0  1.847E+01
     1480.0  2.197E+01
     1490.0  2.467E+01
     1500.0  2.267E+01
     1510.0  1.840E+01
     1520.0  2.297E+01
     1530.0  2.280E+01
     1540.0  2.100E+01
     1550.0  2.280E+01
     1560.0  3.597E+01
     1570.0  2.433E+01
     1580.0  2.707E+01
     1590.0  3.080E+01
     1600.0  2.883E+01
     1610.0  2.647E+01
     1620.0  4.167E+01
     1630.0  3.800E+01
     1640.0  3.467E+01
     1650.0  3.397E+01
     1660.0  3.420E+01
     1670.0  3.520E+01
     1680.0  3.480E+01
     1690.0  3.650E+01
     1700.0  3.460E+01
     1710.0  3.623E+01
     1720.0  3.893E+01
     1730.0  3.020E+01
     1740.0  3.727E+01
     1750.0  5.073E+01
     1760.0  4.513E+01
     1770.0  3.533E+01
     1780.0  4.317E+01
     1790.0  5.100E+01
     1800.0  4.660E+01
     1810.0  5.457E+01
     1820.0  6.067E+01
     1830.0  5.543E+01
     1840.0  5.017E+01
     1850.0  5.260E+01
     1860.0  5.073E+01
     1870.0  5.427E+01
     1880.0  6.120E+01
     1890.0  5.633E+01
     1900.0  5.327E+01
     1910.0  5.883E+01
     1920.0  5.663E+01
     1930.0  5.353E+01
     1940.0  6.077E+01
     1950.0  7.493E+01
     1960.0  5.880E+01
     1970.0  6.443E+01
     1980.0  7.353E+01
     1990.0  6.943E+01
     2000.0  7.020E+01
     2010.0  9.213E+01
     2020.0  8.447E+01
     2030.0  7.847E+01
     2040.0  8.247E+01
     2050.0  7.963E+01
     2060.0  8.787E+01
     2070.0  8.813E+01
     2080.0  8.897E+01
     2090.0  8.667E+01
     2100.0  8.807E+01
     2110.0  9.093E+01
     2120.0  7.950E+01
     2130.0  8.927E+01
     2140.0  1.158E+02
     2150.0  1.011E+02
     2160.0  8.657E+01
     2170.0  9.960E+01
     2180.0  1.071E+02
     2190.0  1.040E+02
     2200.0  1.208E+02
     2210.0  1.334E+02
     2220.0  1.258E+02
     2230.0  1.205E+02
     2240.0  1.226E+02
     2250.0  1.209E+02
     2260.0  1.313E+02
     2270.0  1.366E+02
     2280.0  1.331E+02
     2290.0  1.285E+02
     2300.0  1.373E+02
     2310.0  1.296E+02
     2320.0  1.389E+02
     2330.0  1.471E+02
     2340.0  1.609E+02
     2350.0  1.366E+02
     2360.0  1.445E+02
     2370.0  1.593E+02
     2380.0  1.502E+02
     2390.0  1.610E+02
     2400.0  1.908E+02
     2410.0  1.850E+02
     2420.0  1.723E+02
     2430.0  1.811E+02
     2440.0  1.807E+02
     2450.0  1.898E+02
     2460.0  2.023E+02
     2470.0  1.975E+02
     2480.0  1.915E+02
     2490.0  2.003E+02
     2500.0  2.011E+02
     2510.0  1.880E+02
     2520.0  2.032E+02
     2530.0  2.329E+02
     2540.0  2.209E+02
     2550.0  2.025E+02
     2560.0  2.152E+02
     2570.0  2.275E+02
     2580.0  2.356E+02
     2590.0  2.580E+02
     2600.0  2.666E+02
     2610.0  2.644E+02
     2620.0  2.595E+02
     2630.0  2.616E+02
     2640.0  2.676E+02
     2650.0  2.885E+02
     2660.0  2.981E+02
     2670.0  2.853E+02
     2680.0  2.776E+02
     2690.0  2.960E+02
     2700.0  2.770E+02
     2710.0  2.998E+02
     2720.0  3.180E+02
     2730.0  3.375E+02
     2740.0  3.006E+02
     2750.0  3.066E+02
     2760.0  3.249E+02
     2770.0  3.260E+02
     2780.0  3.369E+02
     2790.0  3.819E+02
     2800.0  3.823E+02
     2810.0  3.717E+02
     2820.0  3.763E+02
     2830.0  3.816E+02
     2840.0  4.085E+02
     2850.0  4.247E+02
     2860.0  4.106E+02
     2870.0  4.071E+02
     2880.0  4.191E+02
     2890.0  4.204E+02
     2900.0  4.077E+02
     2910.0  4.388E+02
     2920.0  4.707E+02
     2930.0  4.581E+02
     2940.0  4.287E+02
     2950.0  4.494E+02
     2960.0  4.655E+02
     2970.0  4.945E+02
     2980.0  5.108E+02
     2990.0  5.371E+02
     3000.0  5.333E+02
     3010.0  5.315E+02
     3020.0  5.237E+02
     3030.0  5.538E+02
     3040.0  5.898E+02
     3050.0  5.976E+02
     3060.0  5.792E+02
     3070.0  5.791E+02
     3080.0  5.982E+02
     3090.0  5.787E+02
     3100.0  6.092E+02
     3110.0  6.426E+02
     3120.0  6.638E+02
     3130.0  6.264E+02
     3140.0  6.210E+02
     3150.0  6.638E+02
     3160.0  6.740E+02
     3170.0  6.945E+02
     3180.0  7.351E+02
     3190.0  7.592E+02
     3200.0  7.400E+02
     3210.0  7.396E+02
     3220.0  7.601E+02
     3230.0  8.256E+02
     3240.0  8.379E+02
     3250.0  8.101E+02
     3260.0  8.162E+02
     3270.0  8.300E+02
     3280.0  8.311E+02
     3290.0  8.303E+02
     3300.0  8.821E+02
     3310.0  9.275E+02
     3320.0  9.076E+02
     3330.0  8.718E+02
     3340.0  8.964E+02
     3350.0  9.253E+02
     3360.0  9.639E+02
     3370.0  9.995E+02
     3380.0  1.044E+03
     3390.0  1.047E+03
     3400.0  1.028E+03
     3410.0  1.037E+03
     3420.0  1.100E+03
     3430.0  1.143E+03
     3440.0  1.139E+03
     3450.0  1.139E+03
     3460.0  1.135E+03
     3470.0  1.155E+03
     3480.0  1.147E+03
     3490.0  1.212E+03
     3500.0  1.256E+03
     3510.0  1.269E+03
     3520.0  1.243E+03
     3530.0  1.219E+03
     3540.0  1.277E+03
     3550.0  1.325E+03
     3560.0  1.347E+03
     3570.0  1.389E+03
     3580.0  1.440E+03
     3590.0  1.410E+03
     3600.0  1.412E+03
     3610.0  1.468E+03
     3620.0  1.551E+03
     3630.0  1.588E+03
     3640.0  1.561E+03
     3650.0  1.559E+03
     3660.0  1.582E+03
     3670.0  1.598E+03
     3680.0  1.615E+03
     3690.0  1.680E+03
     3700.0  1.738E+03
     3710.0  1.741E+03
     3720.0  1.692E+03
     3730.0  1.726E+03
     3740.0  1.776E+03
     3750.0  1.861E+03
     3760.0  1.869E+03
     3770.0  1.935E+03
     3780.0  1.968E+03
     3790.0  1.911E+03
     3800.0  1.956E+03
     3810.0  2.064E+03
     3820.0  2.139E+03
     3830.0  2.129E+03
     3840.0  2.144E+03
     3850.0  2.123E+03
     3860.0  2.178E+03
     3870.0  2.182E+03
     3880.0  2.283E+03
     3890.0  2.339E+03
     3900.0  2.384E+03
     3910.0  2.351E+03
     3920.0  2.307E+03
     3930.0  2.395E+03
     3940.0  2.485E+03
     3950.0  2.525E+03
     3960.0  2.565E+03
     3970.0  2.651E+03
     3980.0  2.622E+03
     3990.0  2.614E+03
     4000.0  2.733E+03
     4010.0  2.834E+03
     4020.0  2.908E+03
     4030.0  2.880E+03
     4040.0  2.877E+03
     4050.0  2.911E+03
     4060.0  2.986E+03
     4070.0  3.019E+03
     4080.0  3.109E+03
     4090.0  3.182E+03
     4100.0  3.229E+03
     4110.0  3.119E+03
     4120.0  3.180E+03
     4130.0  3.298E+03
     4140.0  3.424E+03
     4150.0  3.400E+03
     4160.0  3.506E+03
     4170.0  3.568E+03
     4180.0  3.496E+03
     4190.0  3.550E+03
     4200.0  3.746E+03
     4210.0  3.863E+03
     4220.0  3.870E+03
     4230.0  3.874E+03
     4240.0  3.884E+03
     4250.0  3.981E+03
     4260.0  4.019E+03
     4270.0  4.110E+03
     4280.0  4.247E+03
     4290.0  4.317E+03
     4300.0  4.277E+03
     4310.0  4.194E+03
     4320.0  4.383E+03
     4330.0  4.522E+03
     4340.0  4.544E+03
     4350.0  4.593E+03
     4360.0  4.757E+03
     4370.0  4.696E+03
     4380.0  4.706E+03
     4390.0  4.891E+03
     4400.0  5.098E+03
     4410.0  5.158E+03
     4420.0  5.167E+03
     4430.0  5.164E+03
     4440.0  5.221E+03
     4450.0  5.356E+03
     4460.0  5.437E+03
     4470.0  5.570E+03
     4480.0  5.704E+03
     4490.0  5.732E+03
     4500.0  5.612E+03
     4510.0  5.724E+03
     4520.0  5.908E+03
     4530.0  6.053E+03
     4540.0  6.062E+03
     4550.0  6.212E+03
     4560.0  6.312E+03
     4570.0  6.215E+03
     4580.0  6.351E+03
     4590.0  6.611E+03
     4600.0  6.801E+03
     4610.0  6.811E+03
     4620.0  6.848E+03
     4630.0  6.870E+03
     4640.0  7.045E+03
     4650.0  7.153E+03
     4660.0  7.262E+03
     4670.0  7.475E+03
     4680.0  7.564E+03
     4690.0  7.531E+03
     4700.0  7.437E+03
     4710.0  7.726E+03
     4720.0  7.945E+03
     4730.0  7.991E+03
     4740.0  8.058E+03
     4750.0  8.292E+03
     4760.0  8.214E+03
     4770.0  8.268E+03
     4780.0  8.572E+03
     4790.0  8.839E+03
     4800.0  8.983E+03
     4810.0  9.020E+03
     4820.0  9.017E+03
     4830.0  9.137E+03
     4840.0  9.366E+03
     4850.0  9.472E+03
     4860.0  9.678E+03
     4870.0  9.895E+03
     4880.0  9.921E+03
     4890.0  9.817E+03
     4900.0  1.001E+04
     4910.0  1.029E+04
     4920.0  1.049E+04
     4930.0  1.055E+04
     4940.0  1.070E+04
     4950.0  1.089E+04
     4960.0  1.079E+04
     4970.0  1.105E+04
     4980.0  1.138E+04
     4990.0  1.168E+04
        0.0  1.100E+00
      200.4  2.000E-01
      400.8  1.600E+00
      601.2  1.400E+00
      801.6  3.600E+00
     1002.0  6.433E+00
     1202.4  1.320E+01
     1402.8  2.167E+01
     1603.2  2.883E+01
     1803.6  4.660E+01
     2004.0  7.020E+01
     2204.4  1.208E+02
     2404.8  1.908E+02
     2605.2  2.666E+02
     2805.6  3.823E+02
     3006.0  5.333E+02
     3206.4  7.400E+02
     3406.8  1.028E+03
     3607.2  1.412E+03
     3807.6  1.956E+03
     4008.0  2.733E+03
     4208.4  3.746E+03
     4408.8  5.098E+03
     4609.2  6.801E+03
     4809.6  8.983E+03
     5010.0  1.180E+04
     5210.4  1.532E+04
     5410.8  1.998E+04
     5611.2  2.598E+04
     5811.6  3.372E+04
     6012.0  4.334E+04
     6212.4  5.544E+04
     6412.8  7.034E+04
     6613.2  8.899E+04
     6813.6  1.122E+05
     7014.0  1.412E+05
     7214.4  1.766E+05
     7414.8  2.201E+05
     7615.2  2.734E+05
     7815.6  3.379E+05
     8016.0  4.161E+05
     8216.4  5.115E+05
     8416.8  6.277E+05
     8617.2  7.685E+05
     8817.6  9.393E+05
     9018.0  1.144E+06
     9218.4  1.389E+06
     9418.8  1.679E+06
     9619.2  2.023E+06
     9819.6  2.433E+06
    10020.0  2.945E+06
    10220.4  3.534E+06
    10420.8  4.228E+06
    10621.2  5.045E+06
    10821.6  6.005E+06
    11022.0  7.131E+06
    11222.4  8.451E+06
    11422.8  9.998E+06
    11623.2  1.181E+07
    11823.6  1.393E+07
    12024.0  1.639E+07
    12224.4  1.926E+07
    12424.8  2.258E+07
    12625.3  2.643E+07
    12825.7  3.088E+07
    13026.1  3.603E+07
    13226.5  4.199E+07
    13426.9  4.885E+07
    13627.3  5.676E+07
    13827.7  6.586E+07
    14028.1  7.628E+07
    14228.5  8.821E+07
    14428.9  1.019E+08
    14629.3  1.175E+08
    14829.7  1.353E+08
    15030.1  1.568E+08
    15230.5  1.802E+08
    15430.9  2.068E+08
    15631.3  2.370E+08
    15831.7  2.713E+08
    16032.1  3.101E+08
    16232.5  3.542E+08
    16432.9  4.041E+08
    16633.3  4.605E+08
    16833.7  5.242E+08
    17034.1  5.961E+08
    17234.5  6.771E+08
    17434.9  7.683E+08
    17635.3  8.709E+08
    17835.7  9.862E+08
    18036.1  1.116E+09
    18236.5  1.261E+09
    18436.9  1.424E+09
    18637.3  1.607E+09
    18837.7  1.811E+09
    19038.1  2.039E+09
    19238.5  2.294E+09
    19438.9  2.579E+09
    19639.3  2.897E+09
    19839.7  3.251E+09
    20040.1  3.666E+09
    20240.5  4.107E+09
    20440.9  4.597E+09
    20641.3  5.142E+09
    20841.7  5.747E+09
    21042.1  6.418E+09
    21242.5  7.162E+09
    21442.9  7.987E+09
    21643.3  8.899E+09
    21843.7  9.909E+09
    22044.1  1.103E+10
    22244.5  1.226E+10
    22444.9  1.362E+10
    22645.3  1.512E+10
    22845.7  1.678E+10
    23046.1  1.861E+10
    23246.5  2.062E+10
    23446.9  2.283E+10
    23647.3  2.527E+10
    23847.7  2.795E+10
    24048.1  3.089E+10
    24248.5  3.412E+10
    24448.9  3.766E+10
    24649.3  4.155E+10
    24849.7  4.582E+10
    25050.1  5.073E+10
    25250.5  5.587E+10
    25450.9  6.149E+10
    25651.3  6.765E+10
    25851.7  7.437E+10
    26052.1  8.172E+10
    26252.5  8.975E+10
    26452.9  9.851E+10
    26653.3  1.081E+11
    26853.7  1.185E+11
    27054.1  1.299E+11
    27254.5  1.422E+11
    27454.9  1.557E+11
    27655.3  1.704E+11
    27855.7  1.863E+11
    28056.1  2.037E+11
    28256.5  2.226E+11
    28456.9  2.431E+11
    28657.3  2.653E+11
    28857.7  2.895E+11
    29058.1  3.157E+11
    29258.5  3.441E+11
    29458.9  3.750E+11
    29659.3  4.084E+11
    29859.7  4.446E+11
    30060.1  4.858E+11
    30260.5  5.283E+11
    30460.9  5.744E+11
    30661.3  6.242E+11
    30861.7  6.780E+11
    31062.1  7.362E+11
    31262.5  7.990E+11
    31462.9  8.668E+11
    31663.3  9.401E+11
    31863.7  1.019E+12
    32064.1  1.104E+12
    32264.5  1.196E+12
    32464.9  1.295E+12
    32665.3  1.402E+12
    32865.7  1.517E+12
    33066.1  1.640E+12
    33266.5  1.773E+12
    33466.9  1.916E+12
    33667.3  2.070E+12
    33867.7  2.236E+12
    34068.1  2.414E+12
    34268.5  2.605E+12
    34468.9  2.810E+12
    34669.3  3.031E+12
    34869.7  3.267E+12
    35070.1  3.534E+12
    35270.5  3.807E+12
    35470.9  4.100E+12
    35671.3  4.414E+12
    35871.7  4.751E+12
    36072.1  5.111E+12
    36272.5  5.497E+12
    36472.9  5.911E+12
    36673.3  6.353E+12
    36873.7  6.827E+12
    37074.1  7.333E+12
    37274.5  7.875E+12
    37474.9  8.453E+12
    37675.4  9.072E+12
    37875.8  9.733E+12
    38076.2  1.044E+13
    38276.6  1.119E+13
    38477.0  1.200E+13
    38677.4  1.286E+13
    38877.8  1.377E+13
    39078.2  1.475E+13
    39278.6  1.580E+13
    39479.0  1.691E+13
    39679.4  1.809E+13
    39879.8  1.936E+13
    40080.2  2.077E+13
    40280.6  2.221E+13
    40481.0  2.374E+13
    40681.4  2.537E+13
    40881.8  2.710E+13
    41082.2  2.895E+13
    41282.6  3.091E+13
    41483.0  3.300E+13
    41683.4  3.521E+13
    41883.8  3.757E+13
    42084.2  4.008E+13
    42284.6  4.274E+13
    42485.0  4.557E+13
    42685.4  4.857E+13
    42885.8  5.176E+13
    43086.2  5.515E+13
    43286.6  5.874E+13
    43487.0  6.255E+13
    43687.4  6.659E+13
    43887.8  7.088E+13
    44088.2  7.542E+13
    44288.6  8.024E+13
    44489.0  8.535E+13
    44689.4  9.076E+13
    44889.8  9.649E+13
    45090.2  1.029E+14
    45290.6  1.093E+14
    45491.0  1.161E+14
    45691.4  1.234E+14
    45891.8  1.310E+14
    46092.2  1.391E+14
    46292.6  1.477E+14
    46493.0  1.567E+14
    46693.4  1.663E+14
    46893.8  1.764E+14
    47094.2  1.871E+14
    47294.6  1.984E+14
    47495.0  2.103E+14
    47695.4  2.229E+14
    47895.8  2.363E+14
    48096.2  2.503E+14
    48296.6  2.652E+14
    48497.0  2.809E+14
    48697.4  2.974E+14
    48897.8  3.149E+14
    49098.2  3.333E+14
    49298.6  3.527E+14
    49499.0  3.732E+14
    49699.4  3.948E+14
    49899.8  4.176E+14
    50100.2  4.428E+14
    50300.6  4.682E+14
    50501.0  4.949E+14
    50701.4  5.231E+14
    50901.8  5.527E+14
    51102.2  5.840E+14
    51302.6  6.168E+14
    51503.0  6.515E+14
    51703.4  6.879E+14
    51903.8  7.263E+14
    52104.2  7.666E+14
    52304.6  8.091E+14
    52505.0  8.537E+14
    52705.4  9.007E+14
    52905.8  9.501E+14
    53106.2  1.002E+15
    53306.6  1.057E+15
    53507.0  1.114E+15
    53707.4  1.174E+15
    53907.8  1.238E+15
    54108.2  1.304E+15
    54308.6  1.374E+15
    54509.0  1.448E+15
    54709.4  1.525E+15
    54909.8  1.606E+15
    55110.2  1.695E+15
    55310.6  1.784E+15
    55511.0  1.878E+15
    55711.4  1.977E+15
    55911.8  2.080E+15
    56112.2  2.188E+15
    56312.6  2.302E+15
    56513.0  2.421E+15
    56713.4  2.546E+15
    56913.8  2.677E+15
    57114.2  2.815E+15
    57314.6  2.959E+15
    57515.0  3.110E+15
    57715.4  3.268E+15
    57915.8  3.433E+15
    58116.2  3.607E+15
    58316.6  3.788E+15
    58517.0  3.979E+15
    58717.4  4.178E+15
    58917.8  4.387E+15
    59118.2  4.605E+15
    59318.6  4.834E+15
    59519.0  5.073E+15
    59719.4  5.323E+15
    59919.8  5.585E+15
    60120.2  5.873E+15
    60320.6  6.160E+15
    60521.0  6.461E+15
    60721.4  6.775E+15
    60921.8  7.103E+15
    61122.2  7.447E+15
    61322.6  7.805E+15
    61523.0  8.181E+15
    61723.4  8.573E+15
    61923.8  8.982E+15
    62124.2  9.410E+15
    62324.6  9.858E+15
    62525.1  1.032E+16
    62725.5  1.081E+16
    62925.9  1.132E+16
    63126.3  1.185E+16
    63326.7  1.241E+16
    63527.1  1.299E+16
    63727.5  1.359E+16
    63927.9  1.423E+16
    64128.3  1.489E+16
    64328.7  1.557E+16
    64529.1  1.629E+16
    64729.5  1.704E+16
    64929.9  1.782E+16
    65130.3  1.868E+16
    65330.7  1.953E+16
    65531.1  2.042E+16
    65731.5  2.134E+16
    65931.9  2.231E+16
    66132.3  2.331E+16
    66332.7  2.436E+16
    66533.1  2.545E+16
    66733.5  2.659E+16
    66933.9  2.778E+16
    67134.3  2.902E+16
    67334.7  3.030E+16
    67535.1  3.164E+16
    67735.5  3.304E+16
    67935.9  3.450E+16
    68136.3  3.601E+16
    68336.7  3.759E+16
    68537.1  3.923E+16
    68737.5  4.094E+16
    68937.9  4.272E+16
    69138.3  4.457E+16
    69338.7  4.650E+16
    69539.1  4.850E+16
    69739.5  5.059E+16
    69939.9  5.276E+16
    70140.3  5.513E+16
    70340.7  5.749E+16
    70541.1  5.994E+16
    70741.5  6.248E+16
    70941.9  6.513E+16
    71142.3  6.788E+16
    71342.7  7.074E+16
    71543.1  7.372E+16
    71743.5  7.681E+16
    71943.9  8.002E+16
    72144.3  8.336E+16
    72344.7  8.683E+16
    72545.1  9.044E+16
    72745.5  9.418E+16
    72945.9  9.807E+16
    73146.3  1.021E+17
    73346.7  1.063E+17
    73547.1  1.107E+17
    73747.5  1.152E+17
    73947.9  1.199E+17
    74148.3  1.248E+17
    74348.7  1.299E+17
    74549.1  1.351E+17
    74749.5  1.406E+17
    74949.9  1.463E+17
    75150.3  1.524E+17
    75350.7  1.586E+17
    75551.1  1.649E+17
    75751.5  1.715E+17
    75951.9  1.783E+17
    76152.3  1.854E+17
    76352.7  1.928E+17
    76553.1  2.004E+17
    76753.5  2.083E+17
    76953.9  2.165E+17
    77154.3  2.250E+17
    77354.7  2.339E+17
    77555.1  2.430E+17
    77755.5  2.525E+17
    77955.9  2.623E+17
    78156.3  2.725E+17
    78356.7  2.831E+17
    78557.1  2.940E+17
    78757.5  3.054E+17
    78957.9  3.171E+17
    79158.3  3.293E+17
    79358.7  3.419E+17
    79559.1  3.550E+17
    79759.5  3.685E+17
    79959.9  3.825E+17
    80160.3  3.978E+17
    80360.7  4.129E+17
    80561.1  4.285E+17
    80761.5  4.446E+17
    80961.9  4.614E+17
    81162.3  4.787E+17
    81362.7  4.966E+17
    81563.1  5.152E+17
    81763.5  5.344E+17
    81963.9  5.543E+17
    82164.3  5.748E+17
    82364.7  5.961E+17
    82565.1  6.182E+17
    82765.5  6.410E+17
    82965.9  6.646E+17
    83166.3  6.890E+17
    83366.7  7.142E+17
    83567.1  7.403E+17
    83767.5  7.673E+17
    83967.9  7.953E+17
    84168.3  8.242E+17
    84368.7  8.541E+17
    84569.1  8.849E+17
    84769.5  9.169E+17
    84969.9  9.499E+17
    85170.3  9.858E+17
    85370.7  1.021E+18
    85571.1  1.058E+18
    85771.5  1.095E+18
    85971.9  1.135E+18
    86172.3  1.175E+18
    86372.7  1.217E+18
    86573.1  1.260E+18
    86773.5  1.304E+18
    86973.9  1.350E+18
    87174.3  1.398E+18
    87374.7  1.447E+18
    87575.2  1.497E+18
    87775.6  1.550E+18
    87976.0  1.604E+18
    88176.4  1.660E+18
    88376.8  1.717E+18
    88577.2  1.777E+18
    88777.6  1.838E+18
    88978.0  1.902E+18
    89178.4  1.968E+18
    89378.8  2.035E+18
    89579.2  2.105E+18
    89779.6  2.177E+18
    89980.0  2.252E+18
    90180.4  2.332E+18
    90380.8  2.412E+18
    90581.2  2.494E+18
    90781.6  2.578E+18
    90982.0  2.666E+18
    91182.4  2.756E+18
    91382.8  2.849E+18
    91583.2  2.944E+18
    91783.6  3.043E+18
    91984.0  3.145E+18
    92184.4  3.250E+18
    92384.8  3.359E+18
    92585.2  3.471E+18
    92785.6  3.586E+18
    92986.0  3.705E+18
    93186.4  3.828E+18
    93386.8  3.954E+18
    93587.2  4.085E+18
    93787.6  4.219E+18
    93988.0  4.358E+18
    94188.4  4.501E+18
    94388.8  4.648E+18
    94589.2  4.800E+18
    94789.6  4.957E+18
    94990.0  5.118E+18
    95190.4  5.293E+18
    95390.8  5.464E+18
    95591.2  5.641E+18
    95791.6  5.823E+18
    95992.0  6.011E+18
    96192.4  6.204E+18
    96392.8  6.403E+18
    96593.2  6.609E+18
    96793.6  6.820E+18
    96994.0  7.038E+18
    97194.4  7.262E+18
    97394.8  7.493E+18
    97595.2  7.731E+18
    97795.6  7.976E+18
    97996.0  8.228E+18
    98196.4  8.488E+18
    98396.8  8.755E+18
    98597.2  9.031E+18
    98797.6  9.314E+18
    98998.0  9.606E+18
    99198.4  9.906E+18
    99398.8  1.022E+19
    99599.2  1.053E+19
    99799.6  1.086E+19
   100000.0  1.122E+19


COLLISION PARAMETERS FOR  1 WELLS
 XXXET
 UNSPECIFIED ET TREATMENT: USE BARKER'S APPROACH
 [J.R. Barker, Int. J. Chem. Kinetics, 41, 748-763 (2009)]

Lennard-Jones Parameters & Pdown Models    [rate constants k(LJ) and k(QM) units: cc/sec]

Mol  Sig(Angstrom)  Eps/k MolWt(amu)     NetSig   NetEps/k    RedMass     k(LJ)    k(QM)     Used
  0      3.610    190.000     83.800
  1      4.959    387.200     84.041      4.284    271.234     41.960  5.010E-10  7.524E-09  5.010E-10
  
 ENERGY TRANSFER STEP-SIZE PARAMETERS

Well number:  1     Name: C2H3F3____
Reference energy for collision frequency: 24290.5 cm-1
Collision parameters:
  1.200E+01  2.500E-02  9.000E+01  4.000E-02  5.250E+02  2.500E+01  0.000E+00  0.000E+00
 Exponential Model with Switching Function                                                          
  Alpha1 = C(1) + E*C(2);      Alpha2 = C(3) + E*C(4)                                               
 Alp = Alpha1 + 0.5*(Alpha2 - Alpha1)*(1. - TANH((C(5)-E)/C(6)))                                    
 Pdown = EXP(-(E-EE)/Alp)                                                                           
                                                                                                    



     Energy   Norm(01) UpProb(01)
        0.0  9.522E+00  1.000E+00
       10.0  1.919E+01  6.244E-01
       20.0  2.101E+01  5.000E-01
       30.0  2.513E+01  5.175E-01
       40.0  2.522E+01  4.843E-01
       50.0  2.385E+01  4.318E-01
       60.0  3.101E+01  5.502E-01
       70.0  3.407E+01  5.814E-01
       80.0  2.464E+01  4.099E-01
       90.0  3.026E+01  5.109E-01
      100.0  3.078E+01  5.109E-01
      110.0  3.131E+01  5.112E-01
      120.0  3.185E+01  5.119E-01
      130.0  3.243E+01  5.132E-01
      140.0  3.309E+01  5.154E-01
      150.0  3.385E+01  5.193E-01
      160.0  8.121E+01  7.966E-01
      170.0  8.687E+01  8.071E-01
      180.0  9.355E+01  8.183E-01
      190.0  1.018E+02  8.306E-01
      200.0  1.123E+02  8.443E-01
      210.0  0.000E+00  0.000E+00
      220.0  1.592E+02  9.226E-01
      230.0  4.029E+01  6.283E-01
      240.0  5.509E+01  6.992E-01
      250.0  6.983E+01  7.481E-01
      260.0  7.288E+01  7.492E-01
      270.0  7.526E+01  7.504E-01
      280.0  1.077E+02  8.218E-01
      290.0  1.149E+02  8.301E-01
      300.0  1.228E+02  8.386E-01
      310.0  1.315E+02  8.471E-01
      320.0  1.412E+02  8.557E-01
      330.0  1.519E+02  8.641E-01
      340.0  3.119E+02  9.330E-01
      350.0  1.857E+02  8.862E-01
      360.0  2.064E+02  8.964E-01
      370.0  4.489E+02  9.518E-01
      380.0  2.756E+02  9.206E-01
      390.0  6.892E+01  6.789E-01
      400.0  9.366E+01  7.610E-01
      410.0  1.086E+02  7.916E-01
      420.0  1.302E+02  8.242E-01
      430.0  1.390E+02  8.335E-01
      440.0  2.138E+02  8.903E-01
      450.0  1.108E+02  7.850E-01
      460.0  1.697E+02  8.567E-01
      470.0  1.278E+02  8.035E-01
      480.0  2.701E+02  9.016E-01
      490.0  2.032E+02  8.552E-01
      500.0  2.553E+02  8.632E-01
      510.0  3.372E+02  8.673E-01
      520.0  3.709E+02  8.395E-01
      530.0  2.958E+02  7.411E-01
      540.0  5.558E+02  8.359E-01
      550.0  3.980E+02  7.463E-01
      560.0  5.012E+02  7.874E-01
      570.0  5.311E+02  7.937E-01
      580.0  2.278E+02  5.118E-01
      590.0  2.737E+02  5.899E-01
      600.0  3.768E+02  7.002E-01
      610.0  3.287E+02  6.546E-01
      620.0  2.239E+02  4.907E-01
      630.0  2.470E+02  5.364E-01
      640.0  3.420E+02  6.639E-01
      650.0  2.143E+02  4.615E-01
      660.0  2.305E+02  4.973E-01
      670.0  2.768E+02  5.799E-01
      680.0  2.813E+02  5.851E-01
      690.0  3.178E+02  6.313E-01
      700.0  3.080E+02  6.182E-01
      710.0  3.824E+02  6.914E-01
      720.0  3.446E+02  6.563E-01
      730.0  4.451E+02  7.329E-01
      740.0  3.941E+02  6.973E-01
      750.0  4.085E+02  7.069E-01
      760.0  5.563E+02  7.840E-01
      770.0  4.441E+02  7.285E-01
      780.0  2.575E+02  5.301E-01
      790.0  3.500E+02  6.532E-01
      800.0  3.195E+02  6.187E-01
      810.0  2.623E+02  5.340E-01
      820.0  2.912E+02  5.788E-01
      830.0  3.088E+02  6.015E-01
      840.0  2.483E+02  5.028E-01
      850.0  2.943E+02  5.791E-01
      860.0  2.989E+02  5.842E-01
      870.0  3.687E+02  6.618E-01
      880.0  2.930E+02  5.731E-01
      890.0  3.459E+02  6.371E-01
      900.0  3.957E+02  6.818E-01
      910.0  3.291E+02  6.161E-01
      920.0  3.408E+02  6.281E-01
      930.0  4.479E+02  7.161E-01
      940.0  3.963E+02  6.781E-01
      950.0  4.592E+02  7.213E-01
      960.0  4.768E+02  7.308E-01
      970.0  2.832E+02  5.453E-01
      980.0  3.076E+02  5.801E-01
      990.0  4.233E+02  6.939E-01
     1000.0  3.388E+02  6.163E-01
     1010.0  2.992E+02  5.642E-01
     1020.0  3.496E+02  6.259E-01
     1030.0  3.213E+02  5.917E-01
     1040.0  2.761E+02  5.234E-01
     1050.0  2.788E+02  5.266E-01
     1060.0  3.456E+02  6.169E-01
     1070.0  3.294E+02  5.968E-01
     1080.0  3.766E+02  6.463E-01
     1090.0  3.346E+02  6.007E-01
     1100.0  3.542E+02  6.217E-01
     1110.0  3.479E+02  6.136E-01
     1120.0  4.389E+02  6.928E-01
     1130.0  3.813E+02  6.454E-01
     1140.0  3.713E+02  6.347E-01
     1150.0  4.556E+02  7.015E-01
     1160.0  4.116E+02  6.686E-01
     1170.0  2.934E+02  5.336E-01
     1180.0  3.780E+02  6.370E-01
     1190.0  3.669E+02  6.249E-01
     1200.0  3.199E+02  5.685E-01
     1210.0  3.419E+02  5.952E-01
     1220.0  3.758E+02  6.306E-01
     1230.0  2.784E+02  4.998E-01
     1240.0  3.160E+02  5.582E-01
     1250.0  3.442E+02  5.932E-01
     1260.0  3.639E+02  6.141E-01
     1270.0  3.468E+02  5.939E-01
     1280.0  3.800E+02  6.284E-01
     1290.0  4.134E+02  6.574E-01
     1300.0  3.551E+02  6.001E-01
     1310.0  3.847E+02  6.297E-01
     1320.0  3.891E+02  6.329E-01
     1330.0  3.926E+02  6.352E-01
     1340.0  4.699E+02  6.943E-01
     1350.0  4.604E+02  6.872E-01
     1360.0  3.408E+02  5.762E-01
     1370.0  3.647E+02  6.028E-01
     1380.0  4.548E+02  6.806E-01
     1390.0  3.877E+02  6.245E-01
     1400.0  3.413E+02  5.721E-01
     1410.0  3.606E+02  5.939E-01
     1420.0  3.414E+02  5.699E-01
     1430.0  3.251E+02  5.471E-01
     1440.0  3.409E+02  5.670E-01
     1450.0  3.870E+02  6.175E-01
     1460.0  3.592E+02  5.868E-01
     1470.0  4.164E+02  6.426E-01
     1480.0  3.810E+02  6.083E-01
     1490.0  3.614E+02  5.860E-01
     1500.0  3.862E+02  6.116E-01
     1510.0  4.507E+02  6.663E-01
     1520.0  3.994E+02  6.224E-01
     1530.0  4.092E+02  6.304E-01
     1540.0  4.409E+02  6.561E-01
     1550.0  4.275E+02  6.444E-01
     1560.0  3.311E+02  5.396E-01
     1570.0  4.227E+02  6.385E-01
     1580.0  4.033E+02  6.200E-01
     1590.0  3.792E+02  5.948E-01
     1600.0  4.012E+02  6.161E-01
     1610.0  4.318E+02  6.424E-01
     1620.0  3.350E+02  5.378E-01
     1630.0  3.557E+02  5.636E-01
     1640.0  3.799E+02  5.903E-01
     1650.0  3.904E+02  6.003E-01
     1660.0  3.950E+02  6.040E-01
     1670.0  3.945E+02  6.025E-01
     1680.0  4.039E+02  6.107E-01
     1690.0  3.989E+02  6.048E-01
     1700.0  4.194E+02  6.232E-01
     1710.0  4.151E+02  6.183E-01
     1720.0  4.040E+02  6.069E-01
     1730.0  4.851E+02  6.717E-01
     1740.0  4.324E+02  6.308E-01
     1750.0  3.651E+02  5.617E-01
     1760.0  3.956E+02  5.944E-01
     1770.0  4.697E+02  6.576E-01
     1780.0  4.218E+02  6.178E-01
     1790.0  3.875E+02  5.829E-01
     1800.0  4.151E+02  6.096E-01
     1810.0  3.835E+02  5.764E-01
     1820.0  3.652E+02  5.541E-01
     1830.0  3.886E+02  5.800E-01
     1840.0  4.184E+02  6.089E-01
     1850.0  4.131E+02  6.029E-01
     1860.0  4.293E+02  6.169E-01
     1870.0  4.188E+02  6.064E-01
     1880.0  3.956E+02  5.823E-01
     1890.0  4.216E+02  6.072E-01
     1900.0  4.439E+02  6.260E-01
     1910.0  4.247E+02  6.081E-01
     1920.0  4.422E+02  6.227E-01
     1930.0  4.669E+02  6.419E-01
     1940.0  4.392E+02  6.183E-01
     1950.0  3.933E+02  5.727E-01
     1960.0  4.623E+02  6.357E-01
     1970.0  4.445E+02  6.202E-01
     1980.0  4.168E+02  5.940E-01
     1990.0  4.381E+02  6.128E-01
     2000.0  4.424E+02  6.157E-01
     2010.0  3.823E+02  5.542E-01
     2020.0  4.059E+02  5.792E-01
     2030.0  4.298E+02  6.016E-01
     2040.0  4.233E+02  5.945E-01
     2050.0  4.387E+02  6.079E-01
     2060.0  4.197E+02  5.892E-01
     2070.0  4.247E+02  5.930E-01
     2080.0  4.282E+02  5.955E-01
     2090.0  4.415E+02  6.067E-01
     2100.0  4.440E+02  6.081E-01
     2110.0  4.422E+02  6.056E-01
     2120.0  4.893E+02  6.427E-01
     2130.0  4.631E+02  6.216E-01
     2140.0  4.024E+02  5.636E-01
     2150.0  4.409E+02  6.008E-01
     2160.0  4.937E+02  6.427E-01
     2170.0  4.601E+02  6.157E-01
     2180.0  4.471E+02  6.036E-01
     2190.0  4.623E+02  6.158E-01
     2200.0  4.286E+02  5.847E-01
     2210.0  4.096E+02  5.644E-01
     2220.0  4.284E+02  5.826E-01
     2230.0  4.452E+02  5.975E-01
     2240.0  4.470E+02  5.981E-01
     2250.0  4.574E+02  6.064E-01
     2260.0  4.415E+02  5.914E-01
     2270.0  4.369E+02  5.862E-01
     2280.0  4.497E+02  5.970E-01
     2290.0  4.660E+02  6.103E-01
     2300.0  4.542E+02  5.993E-01
     2310.0  4.776E+02  6.181E-01
     2320.0  4.651E+02  6.069E-01
     2330.0  4.557E+02  5.979E-01
     2340.0  4.379E+02  5.807E-01
     2350.0  4.902E+02  6.246E-01
     2360.0  4.813E+02  6.168E-01
     2370.0  4.604E+02  5.986E-01
     2380.0  4.842E+02  6.175E-01
     2390.0  4.712E+02  6.061E-01
     2400.0  4.319E+02  5.693E-01
     2410.0  4.446E+02  5.807E-01
     2420.0  4.697E+02  6.022E-01
     2430.0  4.623E+02  5.950E-01
     2440.0  4.691E+02  6.001E-01
     2450.0  4.618E+02  5.928E-01
     2460.0  4.504E+02  5.817E-01
     2470.0  4.625E+02  5.918E-01
     2480.0  4.775E+02  6.038E-01
     2490.0  4.713E+02  5.976E-01
     2500.0  4.767E+02  6.014E-01
     2510.0  5.042E+02  6.223E-01
     2520.0  4.881E+02  6.090E-01
     2530.0  4.560E+02  5.807E-01
     2540.0  4.764E+02  5.978E-01
     2550.0  5.099E+02  6.234E-01
     2560.0  4.987E+02  6.142E-01
     2570.0  4.892E+02  6.059E-01
     2580.0  4.859E+02  6.023E-01
     2590.0  4.663E+02  5.848E-01
     2600.0  4.629E+02  5.809E-01
     2610.0  4.707E+02  5.870E-01
     2620.0  4.820E+02  5.959E-01
     2630.0  4.860E+02  5.984E-01
     2640.0  4.859E+02  5.975E-01
     2650.0  4.707E+02  5.836E-01
     2660.0  4.672E+02  5.796E-01
     2670.0  4.851E+02  5.943E-01
     2680.0  4.999E+02  6.055E-01
     2690.0  4.875E+02  5.946E-01
     2700.0  5.145E+02  6.152E-01
     2710.0  4.974E+02  6.011E-01
     2720.0  4.865E+02  5.913E-01
     2730.0  4.754E+02  5.810E-01
     2740.0  5.161E+02  6.132E-01
     2750.0  5.174E+02  6.135E-01
     2760.0  5.067E+02  6.045E-01
     2770.0  5.127E+02  6.084E-01
     2780.0  5.096E+02  6.052E-01
     2790.0  4.791E+02  5.792E-01
     2800.0  4.843E+02  5.829E-01
     2810.0  4.983E+02  5.938E-01
     2820.0  5.009E+02  5.951E-01
     2830.0  5.031E+02  5.961E-01
     2840.0  4.892E+02  5.838E-01
     2850.0  4.837E+02  5.783E-01
     2860.0  4.991E+02  5.905E-01
     2870.0  5.079E+02  5.968E-01
     2880.0  5.055E+02  5.941E-01
     2890.0  5.110E+02  5.977E-01
     2900.0  5.276E+02  6.096E-01
     2910.0  5.115E+02  5.965E-01
     2920.0  4.967E+02  5.837E-01
     2930.0  5.108E+02  5.944E-01
     2940.0  5.388E+02  6.147E-01
     2950.0  5.310E+02  6.083E-01
     2960.0  5.269E+02  6.045E-01
     2970.0  5.147E+02  5.944E-01
     2980.0  5.112E+02  5.907E-01
     2990.0  5.021E+02  5.826E-01
     3000.0  5.100E+02  5.882E-01
     3010.0  5.172E+02  5.932E-01
     3020.0  5.284E+02  6.010E-01
     3030.0  5.175E+02  5.919E-01
     3040.0  5.045E+02  5.806E-01
     3050.0  5.062E+02  5.812E-01
     3060.0  5.215E+02  5.927E-01
     3070.0  5.280E+02  5.970E-01
     3080.0  5.243E+02  5.934E-01
     3090.0  5.417E+02  6.057E-01
     3100.0  5.320E+02  5.978E-01
     3110.0  5.217E+02  5.891E-01
     3120.0  5.178E+02  5.852E-01
     3130.0  5.425E+02  6.033E-01
     3140.0  5.527E+02  6.099E-01
     3150.0  5.378E+02  5.984E-01
     3160.0  5.397E+02  5.990E-01
     3170.0  5.367E+02  5.961E-01
     3180.0  5.252E+02  5.864E-01
     3190.0  5.211E+02  5.825E-01
     3200.0  5.351E+02  5.926E-01
     3210.0  5.418E+02  5.969E-01
     3220.0  5.395E+02  5.945E-01
     3230.0  5.199E+02  5.784E-01
     3240.0  5.209E+02  5.784E-01
     3250.0  5.372E+02  5.905E-01
     3260.0  5.411E+02  5.927E-01
     3270.0  5.421E+02  5.927E-01
     3280.0  5.482E+02  5.965E-01
     3290.0  5.553E+02  6.010E-01
     3300.0  5.422E+02  5.905E-01
     3310.0  5.323E+02  5.822E-01
     3320.0  5.452E+02  5.914E-01
     3330.0  5.654E+02  6.052E-01
     3340.0  5.631E+02  6.029E-01
     3350.0  5.594E+02  5.996E-01
     3360.0  5.526E+02  5.939E-01
     3370.0  5.472E+02  5.892E-01
     3380.0  5.393E+02  5.825E-01
     3390.0  5.444E+02  5.856E-01
     3400.0  5.563E+02  5.938E-01
     3410.0  5.602E+02  5.959E-01
     3420.0  5.471E+02  5.855E-01
     3430.0  5.409E+02  5.800E-01
     3440.0  5.479E+02  5.846E-01
     3450.0  5.538E+02  5.883E-01
     3460.0  5.613E+02  5.931E-01
     3470.0  5.620E+02  5.929E-01
     3480.0  5.710E+02  5.987E-01
     3490.0  5.593E+02  5.895E-01
     3500.0  5.537E+02  5.846E-01
     3510.0  5.562E+02  5.858E-01
     3520.0  5.697E+02  5.949E-01
     3530.0  5.831E+02  6.035E-01
     3540.0  5.741E+02  5.966E-01
     3550.0  5.683E+02  5.918E-01
     3560.0  5.692E+02  5.918E-01
     3570.0  5.652E+02  5.882E-01
     3580.0  5.595E+02  5.832E-01
     3590.0  5.727E+02  5.922E-01
     3600.0  5.788E+02  5.958E-01
     3610.0  5.722E+02  5.904E-01
     3620.0  5.599E+02  5.807E-01
     3630.0  5.581E+02  5.786E-01
     3640.0  5.696E+02  5.864E-01
     3650.0  5.763E+02  5.905E-01
     3660.0  5.777E+02  5.908E-01
     3670.0  5.808E+02  5.923E-01
     3680.0  5.836E+02  5.936E-01
     3690.0  5.766E+02  5.880E-01
     3700.0  5.713E+02  5.835E-01
     3710.0  5.768E+02  5.867E-01
     3720.0  5.933E+02  5.975E-01
     3730.0  5.931E+02  5.968E-01
     3740.0  5.900E+02  5.939E-01
     3750.0  5.802E+02  5.863E-01
     3760.0  5.850E+02  5.891E-01
     3770.0  5.795E+02  5.845E-01
     3780.0  5.798E+02  5.840E-01
     3790.0  5.965E+02  5.950E-01
     3800.0  5.948E+02  5.932E-01
     3810.0  5.827E+02  5.840E-01
     3820.0  5.765E+02  5.789E-01
     3830.0  5.840E+02  5.836E-01
     3840.0  5.877E+02  5.855E-01
     3850.0  5.975E+02  5.916E-01
     3860.0  5.951E+02  5.893E-01
     3870.0  6.009E+02  5.927E-01
     3880.0  5.914E+02  5.855E-01
     3890.0  5.893E+02  5.833E-01
     3900.0  5.887E+02  5.821E-01
     3910.0  5.998E+02  5.892E-01
     3920.0  6.133E+02  5.976E-01
     3930.0  6.066E+02  5.925E-01
     3940.0  6.000E+02  5.874E-01
     3950.0  6.007E+02  5.872E-01
     3960.0  6.015E+02  5.871E-01
     3970.0  5.961E+02  5.826E-01
     3980.0  6.062E+02  5.890E-01
     3990.0  6.140E+02  5.935E-01
     4000.0  6.045E+02  5.865E-01
     4010.0  5.980E+02  5.813E-01
     4020.0  5.949E+02  5.784E-01
     4030.0  6.043E+02  5.844E-01
     4040.0  6.110E+02  5.883E-01
     4050.0  6.132E+02  5.891E-01
     4060.0  6.104E+02  5.866E-01
     4070.0  6.129E+02  5.876E-01
     4080.0  6.087E+02  5.841E-01
     4090.0  6.066E+02  5.820E-01
     4100.0  6.075E+02  5.819E-01
     4110.0  6.266E+02  5.940E-01
     4120.0  6.261E+02  5.931E-01
     4130.0  6.194E+02  5.880E-01
     4140.0  6.121E+02  5.825E-01
     4150.0  6.210E+02  5.878E-01
     4160.0  6.163E+02  5.840E-01
     4170.0  6.161E+02  5.833E-01
     4180.0  6.301E+02  5.919E-01
     4190.0  6.310E+02  5.918E-01
     4200.0  6.178E+02  5.824E-01
     4210.0  6.128E+02  5.784E-01
     4220.0  6.182E+02  5.814E-01
     4230.0  6.240E+02  5.847E-01
     4240.0  6.294E+02  5.876E-01
     4250.0  6.267E+02  5.852E-01
     4260.0  6.296E+02  5.865E-01
     4270.0  6.277E+02  5.846E-01
     4280.0  6.220E+02  5.801E-01
     4290.0  6.221E+02  5.795E-01
     4300.0  6.317E+02  5.853E-01
     4310.0  6.457E+02  5.937E-01
     4320.0  6.357E+02  5.867E-01
     4330.0  6.305E+02  5.826E-01
     4340.0  6.350E+02  5.849E-01
     4350.0  6.374E+02  5.859E-01
     4360.0  6.307E+02  5.808E-01
     4370.0  6.418E+02  5.875E-01
     4380.0  6.476E+02  5.906E-01
     4390.0  6.396E+02  5.848E-01
     4400.0  6.305E+02  5.782E-01
     4410.0  6.321E+02  5.786E-01
     4420.0  6.376E+02  5.816E-01
     4430.0  6.441E+02  5.852E-01
     4440.0  6.464E+02  5.861E-01
     4450.0  6.432E+02  5.834E-01
     4460.0  6.439E+02  5.832E-01
     4470.0  6.410E+02  5.807E-01
     4480.0  6.383E+02  5.783E-01
     4490.0  6.425E+02  5.805E-01
     4500.0  6.570E+02  5.891E-01
     4510.0  6.560E+02  5.879E-01
     4520.0  6.504E+02  5.837E-01
     4530.0  6.475E+02  5.812E-01
     4540.0  6.533E+02  5.843E-01
     4550.0  6.503E+02  5.818E-01
     4560.0  6.505E+02  5.813E-01
     4570.0  6.629E+02  5.885E-01
     4580.0  6.611E+02  5.868E-01
     4590.0  6.521E+02  5.805E-01
     4600.0  6.475E+02  5.769E-01
     4610.0  6.530E+02  5.799E-01
     4620.0  6.572E+02  5.819E-01
     4630.0  6.623E+02  5.846E-01
     4640.0  6.590E+02  5.818E-01
     4650.0  6.594E+02  5.815E-01
     4660.0  6.599E+02  5.812E-01
     4670.0  6.550E+02  5.775E-01
     4680.0  6.566E+02  5.779E-01
     4690.0  6.645E+02  5.823E-01
     4700.0  6.759E+02  5.888E-01
     4710.0  6.675E+02  5.830E-01
     4720.0  6.630E+02  5.795E-01
     4730.0  6.669E+02  5.814E-01
     4740.0  6.701E+02  5.828E-01
     4750.0  6.652E+02  5.792E-01
     4760.0  6.752E+02  5.848E-01
     4770.0  6.792E+02  5.867E-01
     4780.0  6.715E+02  5.813E-01
     4790.0  6.658E+02  5.771E-01
     4800.0  6.656E+02  5.764E-01
     4810.0  6.701E+02  5.787E-01
     4820.0  6.765E+02  5.820E-01
     4830.0  6.777E+02  5.822E-01
     4840.0  6.743E+02  5.795E-01
     4850.0  6.761E+02  5.800E-01
     4860.0  6.739E+02  5.780E-01
     4870.0  6.713E+02  5.758E-01
     4880.0  6.764E+02  5.784E-01
     4890.0  6.869E+02  5.843E-01
     4900.0  6.856E+02  5.829E-01
     4910.0  6.810E+02  5.795E-01
     4920.0  6.796E+02  5.781E-01
     4930.0  6.836E+02  5.799E-01
     4940.0  6.843E+02  5.798E-01
     4950.0  6.835E+02  5.787E-01
     4960.0  6.938E+02  5.844E-01
     4970.0  6.907E+02  5.820E-01
     4980.0  6.852E+02  5.780E-01
     4990.0  6.811E+02  5.749E-01
        0.0  9.522E+00  1.000E+00
      200.4  1.123E+02  8.443E-01
      400.8  9.366E+01  7.610E-01
      601.2  3.768E+02  7.002E-01
      801.6  3.195E+02  6.187E-01
     1002.0  3.388E+02  6.163E-01
     1202.4  3.199E+02  5.685E-01
     1402.8  3.413E+02  5.721E-01
     1603.2  4.012E+02  6.161E-01
     1803.6  4.151E+02  6.096E-01
     2004.0  4.424E+02  6.157E-01
     2204.4  4.286E+02  5.847E-01
     2404.8  4.319E+02  5.693E-01
     2605.2  4.707E+02  5.870E-01
     2805.6  4.983E+02  5.938E-01
     3006.0  5.172E+02  5.932E-01
     3206.4  5.418E+02  5.969E-01
     3406.8  5.602E+02  5.959E-01
     3607.2  5.722E+02  5.904E-01
     3807.6  5.827E+02  5.840E-01
     4008.0  5.980E+02  5.813E-01
     4208.4  6.128E+02  5.784E-01
     4408.8  6.321E+02  5.786E-01
     4609.2  6.530E+02  5.799E-01
     4809.6  6.701E+02  5.787E-01
     5010.0  6.891E+02  5.787E-01
     5210.4  7.122E+02  5.774E-01
     5410.8  7.289E+02  5.771E-01
     5611.2  7.449E+02  5.760E-01
     5811.6  7.583E+02  5.744E-01
     6012.0  7.739E+02  5.728E-01
     6212.4  7.892E+02  5.711E-01
     6412.8  8.060E+02  5.701E-01
     6613.2  8.223E+02  5.690E-01
     6813.6  8.386E+02  5.678E-01
     7014.0  8.535E+02  5.659E-01
     7214.4  8.689E+02  5.644E-01
     7414.8  8.846E+02  5.631E-01
     7615.2  8.998E+02  5.616E-01
     7815.6  9.158E+02  5.605E-01
     8016.0  9.323E+02  5.597E-01
     8216.4  9.483E+02  5.587E-01
     8416.8  9.638E+02  5.575E-01
     8617.2  9.789E+02  5.561E-01
     8817.6  9.933E+02  5.544E-01
     9018.0  1.008E+03  5.528E-01
     9218.4  1.022E+03  5.513E-01
     9418.8  1.038E+03  5.502E-01
     9619.2  1.054E+03  5.494E-01
     9819.6  1.070E+03  5.488E-01
    10020.0  1.081E+03  5.459E-01
    10220.4  1.095E+03  5.443E-01
    10420.8  1.109E+03  5.428E-01
    10621.2  1.123E+03  5.414E-01
    10821.6  1.137E+03  5.400E-01
    11022.0  1.151E+03  5.387E-01
    11222.4  1.165E+03  5.374E-01
    11422.8  1.179E+03  5.362E-01
    11623.2  1.193E+03  5.348E-01
    11823.6  1.207E+03  5.334E-01
    12024.0  1.220E+03  5.320E-01
    12224.4  1.234E+03  5.307E-01
    12424.8  1.247E+03  5.293E-01
    12625.3  1.261E+03  5.281E-01
    12825.7  1.274E+03  5.268E-01
    13026.1  1.288E+03  5.256E-01
    13226.5  1.301E+03  5.243E-01
    13426.9  1.315E+03  5.230E-01
    13627.3  1.328E+03  5.217E-01
    13827.7  1.341E+03  5.204E-01
    14028.1  1.354E+03  5.192E-01
    14228.5  1.368E+03  5.180E-01
    14428.9  1.381E+03  5.170E-01
    14629.3  1.395E+03  5.160E-01
    14829.7  1.409E+03  5.151E-01
    15030.1  1.417E+03  5.122E-01
    15230.5  1.429E+03  5.109E-01
    15430.9  1.442E+03  5.096E-01
    15631.3  1.455E+03  5.083E-01
    15831.7  1.467E+03  5.070E-01
    16032.1  1.480E+03  5.058E-01
    16232.5  1.492E+03  5.045E-01
    16432.9  1.504E+03  5.033E-01
    16633.3  1.517E+03  5.020E-01
    16833.7  1.529E+03  5.007E-01
    17034.1  1.541E+03  4.995E-01
    17234.5  1.553E+03  4.982E-01
    17434.9  1.565E+03  4.970E-01
    17635.3  1.578E+03  4.958E-01
    17835.7  1.590E+03  4.946E-01
    18036.1  1.602E+03  4.934E-01
    18236.5  1.614E+03  4.922E-01
    18436.9  1.626E+03  4.910E-01
    18637.3  1.638E+03  4.898E-01
    18837.7  1.650E+03  4.887E-01
    19038.1  1.662E+03  4.875E-01
    19238.5  1.674E+03  4.865E-01
    19438.9  1.686E+03  4.855E-01
    19639.3  1.698E+03  4.845E-01
    19839.7  1.711E+03  4.835E-01
    20040.1  1.718E+03  4.810E-01
    20240.5  1.730E+03  4.798E-01
    20440.9  1.741E+03  4.787E-01
    20641.3  1.752E+03  4.775E-01
    20841.7  1.764E+03  4.763E-01
    21042.1  1.775E+03  4.752E-01
    21242.5  1.786E+03  4.740E-01
    21442.9  1.798E+03  4.728E-01
    21643.3  1.809E+03  4.717E-01
    21843.7  1.820E+03  4.705E-01
    22044.1  1.831E+03  4.694E-01
    22244.5  1.843E+03  4.683E-01
    22444.9  1.854E+03  4.671E-01
    22645.3  1.865E+03  4.660E-01
    22845.7  1.876E+03  4.649E-01
    23046.1  1.887E+03  4.638E-01
    23246.5  1.898E+03  4.627E-01
    23446.9  1.909E+03  4.616E-01
    23647.3  1.920E+03  4.606E-01
    23847.7  1.932E+03  4.596E-01
    24048.1  1.943E+03  4.585E-01
    24248.5  1.954E+03  4.575E-01
    24448.9  1.965E+03  4.566E-01
    24649.3  1.977E+03  4.557E-01
    24849.7  1.988E+03  4.547E-01
    25050.1  1.995E+03  4.526E-01
    25250.5  2.006E+03  4.515E-01
    25450.9  2.016E+03  4.504E-01
    25651.3  2.027E+03  4.494E-01
    25851.7  2.037E+03  4.483E-01
    26052.1  2.048E+03  4.472E-01
    26252.5  2.059E+03  4.462E-01
    26452.9  2.069E+03  4.451E-01
    26653.3  2.080E+03  4.441E-01
    26853.7  2.090E+03  4.430E-01
    27054.1  2.101E+03  4.420E-01
    27254.5  2.111E+03  4.410E-01
    27454.9  2.122E+03  4.400E-01
    27655.3  2.132E+03  4.390E-01
    27855.7  2.143E+03  4.379E-01
    28056.1  2.153E+03  4.370E-01
    28256.5  2.163E+03  4.360E-01
    28456.9  2.174E+03  4.350E-01
    28657.3  2.184E+03  4.340E-01
    28857.7  2.195E+03  4.331E-01
    29058.1  2.205E+03  4.322E-01
    29258.5  2.216E+03  4.312E-01
    29458.9  2.227E+03  4.304E-01
    29659.3  2.237E+03  4.295E-01
    29859.7  2.248E+03  4.286E-01
    30060.1  2.255E+03  4.268E-01
    30260.5  2.265E+03  4.258E-01
    30460.9  2.275E+03  4.248E-01
    30661.3  2.285E+03  4.239E-01
    30861.7  2.295E+03  4.229E-01
    31062.1  2.305E+03  4.219E-01
    31262.5  2.315E+03  4.210E-01
    31462.9  2.325E+03  4.200E-01
    31663.3  2.335E+03  4.191E-01
    31863.7  2.345E+03  4.181E-01
    32064.1  2.355E+03  4.172E-01
    32264.5  2.365E+03  4.163E-01
    32464.9  2.375E+03  4.154E-01
    32665.3  2.385E+03  4.144E-01
    32865.7  2.395E+03  4.135E-01
    33066.1  2.405E+03  4.126E-01
    33266.5  2.415E+03  4.118E-01
    33466.9  2.425E+03  4.108E-01
    33667.3  2.435E+03  4.100E-01
    33867.7  2.445E+03  4.091E-01
    34068.1  2.455E+03  4.083E-01
    34268.5  2.465E+03  4.075E-01
    34468.9  2.475E+03  4.066E-01
    34669.3  2.486E+03  4.059E-01
    34869.7  2.496E+03  4.051E-01
    35070.1  2.502E+03  4.034E-01
    35270.5  2.512E+03  4.025E-01
    35470.9  2.522E+03  4.017E-01
    35671.3  2.531E+03  4.008E-01
    35871.7  2.541E+03  3.999E-01
    36072.1  2.551E+03  3.990E-01
    36272.5  2.560E+03  3.982E-01
    36472.9  2.570E+03  3.973E-01
    36673.3  2.580E+03  3.965E-01
    36873.7  2.589E+03  3.956E-01
    37074.1  2.599E+03  3.948E-01
    37274.5  2.609E+03  3.939E-01
    37474.9  2.618E+03  3.931E-01
    37675.4  2.628E+03  3.923E-01
    37875.8  2.637E+03  3.914E-01
    38076.2  2.647E+03  3.906E-01
    38276.6  2.657E+03  3.898E-01
    38477.0  2.666E+03  3.890E-01
    38677.4  2.676E+03  3.882E-01
    38877.8  2.686E+03  3.875E-01
    39078.2  2.695E+03  3.867E-01
    39278.6  2.705E+03  3.860E-01
    39479.0  2.715E+03  3.852E-01
    39679.4  2.725E+03  3.845E-01
    39879.8  2.735E+03  3.838E-01
    40080.2  2.741E+03  3.823E-01
    40280.6  2.750E+03  3.815E-01
    40481.0  2.760E+03  3.807E-01
    40681.4  2.769E+03  3.799E-01
    40881.8  2.779E+03  3.791E-01
    41082.2  2.788E+03  3.783E-01
    41282.6  2.797E+03  3.775E-01
    41483.0  2.807E+03  3.767E-01
    41683.4  2.816E+03  3.760E-01
    41883.8  2.825E+03  3.752E-01
    42084.2  2.835E+03  3.744E-01
    42284.6  2.844E+03  3.737E-01
    42485.0  2.853E+03  3.729E-01
    42685.4  2.863E+03  3.722E-01
    42885.8  2.872E+03  3.714E-01
    43086.2  2.882E+03  3.707E-01
    43286.6  2.891E+03  3.699E-01
    43487.0  2.900E+03  3.692E-01
    43687.4  2.910E+03  3.685E-01
    43887.8  2.919E+03  3.678E-01
    44088.2  2.928E+03  3.671E-01
    44288.6  2.938E+03  3.665E-01
    44489.0  2.947E+03  3.657E-01
    44689.4  2.957E+03  3.652E-01
    44889.8  2.967E+03  3.644E-01
    45090.2  2.973E+03  3.631E-01
    45290.6  2.982E+03  3.624E-01
    45491.0  2.991E+03  3.616E-01
    45691.4  3.001E+03  3.609E-01
    45891.8  3.010E+03  3.602E-01
    46092.2  3.019E+03  3.595E-01
    46292.6  3.028E+03  3.588E-01
    46493.0  3.037E+03  3.581E-01
    46693.4  3.046E+03  3.574E-01
    46893.8  3.056E+03  3.567E-01
    47094.2  3.065E+03  3.560E-01
    47294.6  3.074E+03  3.553E-01
    47495.0  3.083E+03  3.546E-01
    47695.4  3.092E+03  3.539E-01
    47895.8  3.101E+03  3.532E-01
    48096.2  3.110E+03  3.525E-01
    48296.6  3.119E+03  3.519E-01
    48497.0  3.129E+03  3.512E-01
    48697.4  3.138E+03  3.506E-01
    48897.8  3.147E+03  3.499E-01
    49098.2  3.156E+03  3.493E-01
    49298.6  3.166E+03  3.487E-01
    49499.0  3.175E+03  3.480E-01
    49699.4  3.185E+03  3.475E-01
    49899.8  3.194E+03  3.468E-01
    50100.2  3.200E+03  3.456E-01
    50300.6  3.209E+03  3.450E-01
    50501.0  3.218E+03  3.443E-01
    50701.4  3.227E+03  3.437E-01
    50901.8  3.236E+03  3.430E-01
    51102.2  3.245E+03  3.423E-01
    51302.6  3.254E+03  3.417E-01
    51503.0  3.263E+03  3.410E-01
    51703.4  3.272E+03  3.404E-01
    51903.8  3.281E+03  3.398E-01
    52104.2  3.290E+03  3.391E-01
    52304.6  3.299E+03  3.385E-01
    52505.0  3.308E+03  3.379E-01
    52705.4  3.317E+03  3.372E-01
    52905.8  3.326E+03  3.366E-01
    53106.2  3.335E+03  3.360E-01
    53306.6  3.344E+03  3.354E-01
    53507.0  3.353E+03  3.348E-01
    53707.4  3.362E+03  3.342E-01
    53907.8  3.371E+03  3.336E-01
    54108.2  3.380E+03  3.330E-01
    54308.6  3.389E+03  3.325E-01
    54509.0  3.398E+03  3.319E-01
    54709.4  3.408E+03  3.314E-01
    54909.8  3.417E+03  3.308E-01
    55110.2  3.423E+03  3.297E-01
    55310.6  3.432E+03  3.291E-01
    55511.0  3.441E+03  3.285E-01
    55711.4  3.450E+03  3.279E-01
    55911.8  3.458E+03  3.273E-01
    56112.2  3.467E+03  3.267E-01
    56312.6  3.476E+03  3.261E-01
    56513.0  3.485E+03  3.255E-01
    56713.4  3.494E+03  3.249E-01
    56913.8  3.503E+03  3.243E-01
    57114.2  3.511E+03  3.238E-01
    57314.6  3.520E+03  3.232E-01
    57515.0  3.529E+03  3.226E-01
    57715.4  3.538E+03  3.220E-01
    57915.8  3.547E+03  3.215E-01
    58116.2  3.556E+03  3.209E-01
    58316.6  3.565E+03  3.204E-01
    58517.0  3.573E+03  3.198E-01
    58717.4  3.582E+03  3.193E-01
    58917.8  3.591E+03  3.187E-01
    59118.2  3.600E+03  3.182E-01
    59318.6  3.609E+03  3.177E-01
    59519.0  3.618E+03  3.171E-01
    59719.4  3.627E+03  3.167E-01
    59919.8  3.636E+03  3.161E-01
    60120.2  3.643E+03  3.151E-01
    60320.6  3.651E+03  3.146E-01
    60521.0  3.660E+03  3.140E-01
    60721.4  3.669E+03  3.135E-01
    60921.8  3.678E+03  3.129E-01
    61122.2  3.686E+03  3.124E-01
    61322.6  3.695E+03  3.118E-01
    61523.0  3.704E+03  3.113E-01
    61723.4  3.713E+03  3.107E-01
    61923.8  3.721E+03  3.102E-01
    62124.2  3.730E+03  3.097E-01
    62324.6  3.739E+03  3.091E-01
    62525.1  3.747E+03  3.086E-01
    62725.5  3.756E+03  3.081E-01
    62925.9  3.765E+03  3.076E-01
    63126.3  3.774E+03  3.070E-01
    63326.7  3.783E+03  3.065E-01
    63527.1  3.791E+03  3.060E-01
    63727.5  3.800E+03  3.055E-01
    63927.9  3.809E+03  3.050E-01
    64128.3  3.818E+03  3.045E-01
    64328.7  3.827E+03  3.041E-01
    64529.1  3.836E+03  3.036E-01
    64729.5  3.845E+03  3.032E-01
    64929.9  3.853E+03  3.026E-01
    65130.3  3.860E+03  3.017E-01
    65330.7  3.868E+03  3.012E-01
    65531.1  3.877E+03  3.007E-01
    65731.5  3.886E+03  3.002E-01
    65931.9  3.894E+03  2.997E-01
    66132.3  3.903E+03  2.992E-01
    66332.7  3.912E+03  2.987E-01
    66533.1  3.920E+03  2.982E-01
    66733.5  3.929E+03  2.977E-01
    66933.9  3.938E+03  2.972E-01
    67134.3  3.946E+03  2.967E-01
    67334.7  3.955E+03  2.962E-01
    67535.1  3.964E+03  2.957E-01
    67735.5  3.972E+03  2.953E-01
    67935.9  3.981E+03  2.948E-01
    68136.3  3.990E+03  2.943E-01
    68336.7  3.998E+03  2.938E-01
    68537.1  4.007E+03  2.934E-01
    68737.5  4.016E+03  2.929E-01
    68937.9  4.024E+03  2.924E-01
    69138.3  4.033E+03  2.920E-01
    69338.7  4.042E+03  2.916E-01
    69539.1  4.051E+03  2.911E-01
    69739.5  4.060E+03  2.907E-01
    69939.9  4.068E+03  2.902E-01
    70140.3  4.075E+03  2.894E-01
    70340.7  4.083E+03  2.889E-01
    70541.1  4.092E+03  2.885E-01
    70741.5  4.101E+03  2.880E-01
    70941.9  4.109E+03  2.875E-01
    71142.3  4.118E+03  2.871E-01
    71342.7  4.126E+03  2.866E-01
    71543.1  4.135E+03  2.861E-01
    71743.5  4.143E+03  2.857E-01
    71943.9  4.152E+03  2.852E-01
    72144.3  4.161E+03  2.848E-01
    72344.7  4.169E+03  2.843E-01
    72545.1  4.178E+03  2.839E-01
    72745.5  4.186E+03  2.834E-01
    72945.9  4.195E+03  2.830E-01
    73146.3  4.204E+03  2.826E-01
    73346.7  4.212E+03  2.821E-01
    73547.1  4.221E+03  2.817E-01
    73747.5  4.229E+03  2.813E-01
    73947.9  4.238E+03  2.808E-01
    74148.3  4.247E+03  2.804E-01
    74348.7  4.255E+03  2.800E-01
    74549.1  4.264E+03  2.796E-01
    74749.5  4.273E+03  2.792E-01
    74949.9  4.282E+03  2.788E-01
    75150.3  4.288E+03  2.780E-01
    75350.7  4.297E+03  2.776E-01
    75551.1  4.305E+03  2.772E-01
    75751.5  4.314E+03  2.767E-01
    75951.9  4.322E+03  2.763E-01
    76152.3  4.331E+03  2.759E-01
    76352.7  4.339E+03  2.754E-01
    76553.1  4.348E+03  2.750E-01
    76753.5  4.356E+03  2.746E-01
    76953.9  4.365E+03  2.742E-01
    77154.3  4.373E+03  2.737E-01
    77354.7  4.382E+03  2.733E-01
    77555.1  4.390E+03  2.729E-01
    77755.5  4.399E+03  2.725E-01
    77955.9  4.407E+03  2.721E-01
    78156.3  4.416E+03  2.717E-01
    78356.7  4.424E+03  2.713E-01
    78557.1  4.433E+03  2.709E-01
    78757.5  4.442E+03  2.705E-01
    78957.9  4.450E+03  2.701E-01
    79158.3  4.459E+03  2.697E-01
    79358.7  4.467E+03  2.693E-01
    79559.1  4.476E+03  2.689E-01
    79759.5  4.485E+03  2.686E-01
    79959.9  4.493E+03  2.682E-01
    80160.3  4.500E+03  2.675E-01
    80360.7  4.509E+03  2.671E-01
    80561.1  4.517E+03  2.667E-01
    80761.5  4.525E+03  2.663E-01
    80961.9  4.534E+03  2.659E-01
    81162.3  4.542E+03  2.655E-01
    81362.7  4.551E+03  2.651E-01
    81563.1  4.559E+03  2.647E-01
    81763.5  4.568E+03  2.643E-01
    81963.9  4.576E+03  2.639E-01
    82164.3  4.585E+03  2.635E-01
    82364.7  4.593E+03  2.631E-01
    82565.1  4.602E+03  2.627E-01
    82765.5  4.610E+03  2.624E-01
    82965.9  4.618E+03  2.620E-01
    83166.3  4.627E+03  2.616E-01
    83366.7  4.635E+03  2.612E-01
    83567.1  4.644E+03  2.608E-01
    83767.5  4.653E+03  2.605E-01
    83967.9  4.661E+03  2.601E-01
    84168.3  4.670E+03  2.598E-01
    84368.7  4.678E+03  2.594E-01
    84569.1  4.687E+03  2.591E-01
    84769.5  4.696E+03  2.587E-01
    84969.9  4.704E+03  2.583E-01
    85170.3  4.711E+03  2.577E-01
    85370.7  4.719E+03  2.573E-01
    85571.1  4.728E+03  2.569E-01
    85771.5  4.736E+03  2.566E-01
    85971.9  4.744E+03  2.562E-01
    86172.3  4.753E+03  2.558E-01
    86372.7  4.761E+03  2.555E-01
    86573.1  4.770E+03  2.551E-01
    86773.5  4.778E+03  2.547E-01
    86973.9  4.786E+03  2.544E-01
    87174.3  4.795E+03  2.540E-01
    87374.7  4.803E+03  2.536E-01
    87575.2  4.812E+03  2.533E-01
    87775.6  4.820E+03  2.529E-01
    87976.0  4.828E+03  2.526E-01
    88176.4  4.837E+03  2.522E-01
    88376.8  4.845E+03  2.519E-01
    88577.2  4.854E+03  2.515E-01
    88777.6  4.862E+03  2.512E-01
    88978.0  4.871E+03  2.508E-01
    89178.4  4.880E+03  2.505E-01
    89378.8  4.888E+03  2.502E-01
    89579.2  4.897E+03  2.499E-01
    89779.6  4.905E+03  2.495E-01
    89980.0  4.914E+03  2.492E-01
    90180.4  4.920E+03  2.486E-01
    90380.8  4.929E+03  2.482E-01
    90581.2  4.937E+03  2.479E-01
    90781.6  4.945E+03  2.475E-01
    90982.0  4.954E+03  2.472E-01
    91182.4  4.962E+03  2.468E-01
    91382.8  4.971E+03  2.465E-01
    91583.2  4.979E+03  2.462E-01
    91783.6  4.987E+03  2.458E-01
    91984.0  4.996E+03  2.455E-01
    92184.4  5.004E+03  2.451E-01
    92384.8  5.012E+03  2.448E-01
    92585.2  5.021E+03  2.445E-01
    92785.6  5.029E+03  2.441E-01
    92986.0  5.038E+03  2.438E-01
    93186.4  5.046E+03  2.435E-01
    93386.8  5.054E+03  2.432E-01
    93587.2  5.063E+03  2.428E-01
    93787.6  5.071E+03  2.425E-01
    93988.0  5.080E+03  2.422E-01
    94188.4  5.088E+03  2.419E-01
    94388.8  5.097E+03  2.416E-01
    94589.2  5.106E+03  2.413E-01
    94789.6  5.114E+03  2.410E-01
    94990.0  5.123E+03  2.407E-01
    95190.4  5.129E+03  2.401E-01
    95390.8  5.138E+03  2.398E-01
    95591.2  5.146E+03  2.395E-01
    95791.6  5.155E+03  2.392E-01
    95992.0  5.163E+03  2.389E-01
    96192.4  5.171E+03  2.386E-01
    96392.8  5.180E+03  2.383E-01
    96593.2  5.188E+03  2.380E-01
    96793.6  5.197E+03  2.377E-01
    96994.0  5.205E+03  2.374E-01
    97194.4  5.214E+03  2.371E-01
    97394.8  5.223E+03  2.368E-01
    97595.2  5.231E+03  2.366E-01
    97795.6  5.240E+03  2.363E-01
    97996.0  5.249E+03  2.361E-01
    98196.4  5.258E+03  2.358E-01
    98396.8  5.267E+03  2.356E-01
    98597.2  5.276E+03  2.354E-01
    98797.6  5.285E+03  2.352E-01
    98998.0  5.295E+03  2.351E-01
    99198.4  5.304E+03  2.350E-01
    99398.8  5.314E+03  2.349E-01
    99599.2  5.324E+03  2.349E-01
    99799.6  5.335E+03  2.348E-01
   100000.0  5.343E+03  2.346E-01

       1 REACTION RATE CONSTANTS: Canonical k(infinity)
                01-->02
    TS_Name: TS-C2H3F3_
  2D-moment:      112.5
   ext_symm:          1
Qel_partfxn:       1.00
   opt_isom:          1
Rx_Path*Qel:        3.0
 delH(cm-1):    24290.5
   delH(kJ):      290.6
 delH(kcal):       69.5
   Eo(cm-1):    24290.5
     Eo(kJ):     290.58
   Eo(kcal):      69.45
     k(inf):   4.59E+06
     A(inf):    4.3E+14
 E(inf)kcal:       73.0
   E(inf)kJ:      305.4
 koSC(cc/s):   0.00E+00
Centr.Corr.:          0
Eocent/cm-1:    24290.5
     Source:          1
TUN   vimag:     1650.0
 WARNING!!!:          0
-----------
SOURCE: 0=> ILT method; 1=> sums of states file; 2=> k(E) file; -2=> for reverse rxn; 3=> CRP file.
CENTR.CORR.: 0=> none; 1=> 1-D adiabatic rotor; 2=> 2-D adiabatic rotor; -2=> legacy (not recommended).
WARNING: number of energy grains where Reactant Well has states, but Product Well has none to match [set k(E) = 0].
   
    TS_Name: TS-C2H3F3_
Eocent/cm-1:    24290.5
                01-->02
     -5000.0  6.079E-06
     -4990.0  6.343E-06
     -4980.0  6.620E-06
     -4970.0  6.907E-06
     -4960.0  7.208E-06
     -4950.0  7.520E-06
     -4940.0  7.845E-06
     -4930.0  8.184E-06
     -4920.0  8.536E-06
     -4910.0  8.904E-06
     -4900.0  9.288E-06
     -4890.0  9.689E-06
     -4880.0  1.011E-05
     -4870.0  1.054E-05
     -4860.0  1.100E-05
     -4850.0  1.147E-05
     -4840.0  1.196E-05
     -4830.0  1.247E-05
     -4820.0  1.301E-05
     -4810.0  1.356E-05
     -4800.0  1.414E-05
     -4790.0  1.474E-05
     -4780.0  1.537E-05
     -4770.0  1.603E-05
     -4760.0  1.671E-05
     -4750.0  1.742E-05
     -4740.0  1.815E-05
     -4730.0  1.892E-05
     -4720.0  1.972E-05
     -4710.0  2.056E-05
     -4700.0  2.143E-05
     -4690.0  2.233E-05
     -4680.0  2.327E-05
     -4670.0  2.425E-05
     -4660.0  2.527E-05
     -4650.0  2.634E-05
     -4640.0  2.745E-05
     -4630.0  2.860E-05
     -4620.0  2.980E-05
     -4610.0  3.106E-05
     -4600.0  3.236E-05
     -4590.0  3.372E-05
     -4580.0  3.513E-05
     -4570.0  3.660E-05
     -4560.0  3.813E-05
     -4550.0  3.972E-05
     -4540.0  4.138E-05
     -4530.0  4.311E-05
     -4520.0  4.491E-05
     -4510.0  4.678E-05
     -4500.0  4.872E-05
     -4490.0  5.075E-05
     -4480.0  5.285E-05
     -4470.0  5.505E-05
     -4460.0  5.733E-05
     -4450.0  5.970E-05
     -4440.0  6.215E-05
     -4430.0  6.471E-05
     -4420.0  6.737E-05
     -4410.0  7.014E-05
     -4400.0  7.302E-05
     -4390.0  7.601E-05
     -4380.0  7.913E-05
     -4370.0  8.237E-05
     -4360.0  8.574E-05
     -4350.0  8.925E-05
     -4340.0  9.290E-05
     -4330.0  9.670E-05
     -4320.0  1.006E-04
     -4310.0  1.048E-04
     -4300.0  1.090E-04
     -4290.0  1.135E-04
     -4280.0  1.181E-04
     -4270.0  1.229E-04
     -4260.0  1.279E-04
     -4250.0  1.331E-04
     -4240.0  1.386E-04
     -4230.0  1.443E-04
     -4220.0  1.502E-04
     -4210.0  1.563E-04
     -4200.0  1.627E-04
     -4190.0  1.693E-04
     -4180.0  1.762E-04
     -4170.0  1.834E-04
     -4160.0  1.909E-04
     -4150.0  1.987E-04
     -4140.0  2.068E-04
     -4130.0  2.152E-04
     -4120.0  2.239E-04
     -4110.0  2.330E-04
     -4100.0  2.425E-04
     -4090.0  2.523E-04
     -4080.0  2.626E-04
     -4070.0  2.732E-04
     -4060.0  2.843E-04
     -4050.0  2.958E-04
     -4040.0  3.078E-04
     -4030.0  3.203E-04
     -4020.0  3.332E-04
     -4010.0  3.467E-04
     -4000.0  3.607E-04
     -3990.0  3.753E-04
     -3980.0  3.904E-04
     -3970.0  4.062E-04
     -3960.0  4.225E-04
     -3950.0  4.396E-04
     -3940.0  4.573E-04
     -3930.0  4.757E-04
     -3920.0  4.948E-04
     -3910.0  5.147E-04
     -3900.0  5.354E-04
     -3890.0  5.569E-04
     -3880.0  5.793E-04
     -3870.0  6.025E-04
     -3860.0  6.267E-04
     -3850.0  6.518E-04
     -3840.0  6.780E-04
     -3830.0  7.052E-04
     -3820.0  7.334E-04
     -3810.0  7.628E-04
     -3800.0  7.933E-04
     -3790.0  8.250E-04
     -3780.0  8.580E-04
     -3770.0  8.923E-04
     -3760.0  9.279E-04
     -3750.0  9.649E-04
     -3740.0  1.003E-03
     -3730.0  1.043E-03
     -3720.0  1.085E-03
     -3710.0  1.128E-03
     -3700.0  1.173E-03
     -3690.0  1.220E-03
     -3680.0  1.268E-03
     -3670.0  1.319E-03
     -3660.0  1.371E-03
     -3650.0  1.426E-03
     -3640.0  1.482E-03
     -3630.0  1.541E-03
     -3620.0  1.602E-03
     -3610.0  1.666E-03
     -3600.0  1.732E-03
     -3590.0  1.800E-03
     -3580.0  1.872E-03
     -3570.0  1.946E-03
     -3560.0  2.023E-03
     -3550.0  2.103E-03
     -3540.0  2.186E-03
     -3530.0  2.272E-03
     -3520.0  2.362E-03
     -3510.0  2.455E-03
     -3500.0  2.552E-03
     -3490.0  2.653E-03
     -3480.0  2.757E-03
     -3470.0  2.866E-03
     -3460.0  2.979E-03
     -3450.0  3.096E-03
     -3440.0  3.218E-03
     -3430.0  3.344E-03
     -3420.0  3.476E-03
     -3410.0  3.613E-03
     -3400.0  3.755E-03
     -3390.0  3.902E-03
     -3380.0  4.055E-03
     -3370.0  4.214E-03
     -3360.0  4.380E-03
     -3350.0  4.551E-03
     -3340.0  4.730E-03
     -3330.0  4.915E-03
     -3320.0  5.107E-03
     -3310.0  5.307E-03
     -3300.0  5.515E-03
     -3290.0  5.730E-03
     -3280.0  5.954E-03
     -3270.0  6.186E-03
     -3260.0  6.428E-03
     -3250.0  6.679E-03
     -3240.0  6.939E-03
     -3230.0  7.210E-03
     -3220.0  7.491E-03
     -3210.0  7.783E-03
     -3200.0  8.087E-03
     -3190.0  8.401E-03
     -3180.0  8.728E-03
     -3170.0  9.068E-03
     -3160.0  9.421E-03
     -3150.0  9.787E-03
     -3140.0  1.017E-02
     -3130.0  1.056E-02
     -3120.0  1.097E-02
     -3110.0  1.140E-02
     -3100.0  1.184E-02
     -3090.0  1.230E-02
     -3080.0  1.277E-02
     -3070.0  1.327E-02
     -3060.0  1.378E-02
     -3050.0  1.432E-02
     -3040.0  1.487E-02
     -3030.0  1.545E-02
     -3020.0  1.604E-02
     -3010.0  1.666E-02
     -3000.0  1.731E-02
     -2990.0  1.798E-02
     -2980.0  1.867E-02
     -2970.0  1.939E-02
     -2960.0  2.014E-02
     -2950.0  2.091E-02
     -2940.0  2.172E-02
     -2930.0  2.256E-02
     -2920.0  2.342E-02
     -2910.0  2.433E-02
     -2900.0  2.526E-02
     -2890.0  2.623E-02
     -2880.0  2.724E-02
     -2870.0  2.829E-02
     -2860.0  2.937E-02
     -2850.0  3.050E-02
     -2840.0  3.167E-02
     -2830.0  3.289E-02
     -2820.0  3.415E-02
     -2810.0  3.546E-02
     -2800.0  3.682E-02
     -2790.0  3.823E-02
     -2780.0  3.969E-02
     -2770.0  4.121E-02
     -2760.0  4.279E-02
     -2750.0  4.442E-02
     -2740.0  4.612E-02
     -2730.0  4.788E-02
     -2720.0  4.971E-02
     -2710.0  5.161E-02
     -2700.0  5.358E-02
     -2690.0  5.562E-02
     -2680.0  5.774E-02
     -2670.0  5.994E-02
     -2660.0  6.222E-02
     -2650.0  6.459E-02
     -2640.0  6.705E-02
     -2630.0  6.961E-02
     -2620.0  7.226E-02
     -2610.0  7.501E-02
     -2600.0  7.786E-02
     -2590.0  8.082E-02
     -2580.0  8.389E-02
     -2570.0  8.707E-02
     -2560.0  9.038E-02
     -2550.0  9.381E-02
     -2540.0  9.737E-02
     -2530.0  1.011E-01
     -2520.0  1.049E-01
     -2510.0  1.089E-01
     -2500.0  1.130E-01
     -2490.0  1.173E-01
     -2480.0  1.217E-01
     -2470.0  1.263E-01
     -2460.0  1.311E-01
     -2450.0  1.360E-01
     -2440.0  1.412E-01
     -2430.0  1.465E-01
     -2420.0  1.520E-01
     -2410.0  1.578E-01
     -2400.0  1.637E-01
     -2390.0  1.699E-01
     -2380.0  1.763E-01
     -2370.0  1.829E-01
     -2360.0  1.898E-01
     -2350.0  1.970E-01
     -2340.0  2.044E-01
     -2330.0  2.121E-01
     -2320.0  2.201E-01
     -2310.0  2.283E-01
     -2300.0  2.369E-01
     -2290.0  2.458E-01
     -2280.0  2.550E-01
     -2270.0  2.646E-01
     -2260.0  2.745E-01
     -2250.0  2.848E-01
     -2240.0  2.955E-01
     -2230.0  3.066E-01
     -2220.0  3.181E-01
     -2210.0  3.300E-01
     -2200.0  3.424E-01
     -2190.0  3.552E-01
     -2180.0  3.685E-01
     -2170.0  3.822E-01
     -2160.0  3.965E-01
     -2150.0  4.113E-01
     -2140.0  4.267E-01
     -2130.0  4.426E-01
     -2120.0  4.592E-01
     -2110.0  4.763E-01
     -2100.0  4.941E-01
     -2090.0  5.125E-01
     -2080.0  5.316E-01
     -2070.0  5.514E-01
     -2060.0  5.719E-01
     -2050.0  5.932E-01
     -2040.0  6.153E-01
     -2030.0  6.382E-01
     -2020.0  6.619E-01
     -2010.0  6.865E-01
     -2000.0  7.120E-01
     -1990.0  7.385E-01
     -1980.0  7.659E-01
     -1970.0  7.943E-01
     -1960.0  8.238E-01
     -1950.0  8.544E-01
     -1940.0  8.861E-01
     -1930.0  9.189E-01
     -1920.0  9.529E-01
     -1910.0  9.882E-01
     -1900.0  1.025E+00
     -1890.0  1.063E+00
     -1880.0  1.102E+00
     -1870.0  1.143E+00
     -1860.0  1.185E+00
     -1850.0  1.229E+00
     -1840.0  1.274E+00
     -1830.0  1.321E+00
     -1820.0  1.370E+00
     -1810.0  1.421E+00
     -1800.0  1.473E+00
     -1790.0  1.527E+00
     -1780.0  1.584E+00
     -1770.0  1.642E+00
     -1760.0  1.702E+00
     -1750.0  1.765E+00
     -1740.0  1.830E+00
     -1730.0  1.897E+00
     -1720.0  1.967E+00
     -1710.0  2.040E+00
     -1700.0  2.114E+00
     -1690.0  2.192E+00
     -1680.0  2.273E+00
     -1670.0  2.356E+00
     -1660.0  2.442E+00
     -1650.0  2.532E+00
     -1640.0  2.625E+00
     -1630.0  2.721E+00
     -1620.0  2.821E+00
     -1610.0  2.924E+00
     -1600.0  3.031E+00
     -1590.0  3.142E+00
     -1580.0  3.257E+00
     -1570.0  3.376E+00
     -1560.0  3.500E+00
     -1550.0  3.628E+00
     -1540.0  3.760E+00
     -1530.0  3.897E+00
     -1520.0  4.040E+00
     -1510.0  4.187E+00
     -1500.0  4.340E+00
     -1490.0  4.498E+00
     -1480.0  4.662E+00
     -1470.0  4.831E+00
     -1460.0  5.007E+00
     -1450.0  5.190E+00
     -1440.0  5.378E+00
     -1430.0  5.574E+00
     -1420.0  5.777E+00
     -1410.0  5.987E+00
     -1400.0  6.204E+00
     -1390.0  6.430E+00
     -1380.0  6.663E+00
     -1370.0  6.905E+00
     -1360.0  7.156E+00
     -1350.0  7.415E+00
     -1340.0  7.684E+00
     -1330.0  7.962E+00
     -1320.0  8.250E+00
     -1310.0  8.549E+00
     -1300.0  8.858E+00
     -1290.0  9.178E+00
     -1280.0  9.510E+00
     -1270.0  9.854E+00
     -1260.0  1.021E+01
     -1250.0  1.058E+01
     -1240.0  1.096E+01
     -1230.0  1.136E+01
     -1220.0  1.177E+01
     -1210.0  1.219E+01
     -1200.0  1.263E+01
     -1190.0  1.308E+01
     -1180.0  1.355E+01
     -1170.0  1.404E+01
     -1160.0  1.455E+01
     -1150.0  1.507E+01
     -1140.0  1.561E+01
     -1130.0  1.617E+01
     -1120.0  1.675E+01
     -1110.0  1.735E+01
     -1100.0  1.798E+01
     -1090.0  1.862E+01
     -1080.0  1.929E+01
     -1070.0  1.998E+01
     -1060.0  2.069E+01
     -1050.0  2.143E+01
     -1040.0  2.220E+01
     -1030.0  2.299E+01
     -1020.0  2.381E+01
     -1010.0  2.466E+01
     -1000.0  2.554E+01
      -990.0  2.646E+01
      -980.0  2.740E+01
      -970.0  2.837E+01
      -960.0  2.938E+01
      -950.0  3.043E+01
      -940.0  3.151E+01
      -930.0  3.263E+01
      -920.0  3.379E+01
      -910.0  3.499E+01
      -900.0  3.623E+01
      -890.0  3.751E+01
      -880.0  3.884E+01
      -870.0  4.022E+01
      -860.0  4.164E+01
      -850.0  4.311E+01
      -840.0  4.463E+01
      -830.0  4.621E+01
      -820.0  4.784E+01
      -810.0  4.952E+01
      -800.0  5.127E+01
      -790.0  5.307E+01
      -780.0  5.494E+01
      -770.0  5.687E+01
      -760.0  5.887E+01
      -750.0  6.093E+01
      -740.0  6.307E+01
      -730.0  6.528E+01
      -720.0  6.756E+01
      -710.0  6.992E+01
      -700.0  7.236E+01
      -690.0  7.488E+01
      -680.0  7.749E+01
      -670.0  8.019E+01
      -660.0  8.298E+01
      -650.0  8.586E+01
      -640.0  8.884E+01
      -630.0  9.192E+01
      -620.0  9.511E+01
      -610.0  9.840E+01
      -600.0  1.018E+02
      -590.0  1.053E+02
      -580.0  1.089E+02
      -570.0  1.127E+02
      -560.0  1.166E+02
      -550.0  1.206E+02
      -540.0  1.247E+02
      -530.0  1.290E+02
      -520.0  1.334E+02
      -510.0  1.379E+02
      -500.0  1.427E+02
      -490.0  1.475E+02
      -480.0  1.525E+02
      -470.0  1.577E+02
      -460.0  1.630E+02
      -450.0  1.686E+02
      -440.0  1.743E+02
      -430.0  1.801E+02
      -420.0  1.862E+02
      -410.0  1.925E+02
      -400.0  1.989E+02
      -390.0  2.056E+02
      -380.0  2.125E+02
      -370.0  2.196E+02
      -360.0  2.269E+02
      -350.0  2.344E+02
      -340.0  2.422E+02
      -330.0  2.502E+02
      -320.0  2.585E+02
      -310.0  2.670E+02
      -300.0  2.758E+02
      -290.0  2.848E+02
      -280.0  2.942E+02
      -270.0  3.038E+02
      -260.0  3.137E+02
      -250.0  3.239E+02
      -240.0  3.344E+02
      -230.0  3.452E+02
      -220.0  3.564E+02
      -210.0  3.678E+02
      -200.0  3.797E+02
      -190.0  3.919E+02
      -180.0  4.044E+02
      -170.0  4.173E+02
      -160.0  4.306E+02
      -150.0  4.442E+02
      -140.0  4.583E+02
      -130.0  4.727E+02
      -120.0  4.876E+02
      -110.0  5.029E+02
      -100.0  5.186E+02
       -90.0  5.348E+02
       -80.0  5.515E+02
       -70.0  5.686E+02
       -60.0  5.862E+02
       -50.0  6.042E+02
       -40.0  6.228E+02
       -30.0  6.420E+02
       -20.0  6.616E+02
       -10.0  6.818E+02
         0.0  7.025E+02
        10.0  7.238E+02
        20.0  7.457E+02
        30.0  7.681E+02
        40.0  7.912E+02
        50.0  8.149E+02
        60.0  8.392E+02
        70.0  8.642E+02
        80.0  8.898E+02
        90.0  9.162E+02
       100.0  9.432E+02
       110.0  9.709E+02
       120.0  9.993E+02
       130.0  1.028E+03
       140.0  1.058E+03
       150.0  1.089E+03
       160.0  1.121E+03
       170.0  1.153E+03
       180.0  1.186E+03
       190.0  1.220E+03
       200.0  1.255E+03
       210.0  1.291E+03
       220.0  1.327E+03
       230.0  1.365E+03
       240.0  1.403E+03
       250.0  1.443E+03
       260.0  1.483E+03
       270.0  1.525E+03
       280.0  1.567E+03
       290.0  1.611E+03
       300.0  1.655E+03
       310.0  1.701E+03
       320.0  1.748E+03
       330.0  1.796E+03
       340.0  1.845E+03
       350.0  1.895E+03
       360.0  1.946E+03
       370.0  1.999E+03
       380.0  2.053E+03
       390.0  2.108E+03
       400.0  2.165E+03
       410.0  2.223E+03
       420.0  2.282E+03
       430.0  2.342E+03
       440.0  2.404E+03
       450.0  2.468E+03
       460.0  2.533E+03
       470.0  2.599E+03
       480.0  2.667E+03
       490.0  2.736E+03
       500.0  2.807E+03
       510.0  2.880E+03
       520.0  2.954E+03
       530.0  3.030E+03
       540.0  3.108E+03
       550.0  3.187E+03
       560.0  3.268E+03
       570.0  3.350E+03
       580.0  3.434E+03
       590.0  3.520E+03
       600.0  3.608E+03
       610.0  3.697E+03
       620.0  3.789E+03
       630.0  3.882E+03
       640.0  3.978E+03
       650.0  4.076E+03
       660.0  4.175E+03
       670.0  4.277E+03
       680.0  4.381E+03
       690.0  4.487E+03
       700.0  4.595E+03
       710.0  4.706E+03
       720.0  4.819E+03
       730.0  4.934E+03
       740.0  5.052E+03
       750.0  5.172E+03
       760.0  5.296E+03
       770.0  5.423E+03
       780.0  5.552E+03
       790.0  5.684E+03
       800.0  5.819E+03
       810.0  5.956E+03
       820.0  6.096E+03
       830.0  6.239E+03
       840.0  6.385E+03
       850.0  6.534E+03
       860.0  6.686E+03
       870.0  6.841E+03
       880.0  7.000E+03
       890.0  7.161E+03
       900.0  7.325E+03
       910.0  7.493E+03
       920.0  7.665E+03
       930.0  7.839E+03
       940.0  8.017E+03
       950.0  8.199E+03
       960.0  8.384E+03
       970.0  8.573E+03
       980.0  8.766E+03
       990.0  8.962E+03
      1000.0  9.163E+03
      1010.0  9.367E+03
      1020.0  9.575E+03
      1030.0  9.787E+03
      1040.0  1.000E+04
      1050.0  1.022E+04
      1060.0  1.045E+04
      1070.0  1.068E+04
      1080.0  1.091E+04
      1090.0  1.115E+04
      1100.0  1.139E+04
      1110.0  1.164E+04
      1120.0  1.189E+04
      1130.0  1.214E+04
      1140.0  1.240E+04
      1150.0  1.267E+04
      1160.0  1.294E+04
      1170.0  1.322E+04
      1180.0  1.350E+04
      1190.0  1.378E+04
      1200.0  1.407E+04
      1210.0  1.437E+04
      1220.0  1.467E+04
      1230.0  1.498E+04
      1240.0  1.529E+04
      1250.0  1.561E+04
      1260.0  1.594E+04
      1270.0  1.627E+04
      1280.0  1.660E+04
      1290.0  1.695E+04
      1300.0  1.729E+04
      1310.0  1.765E+04
      1320.0  1.801E+04
      1330.0  1.838E+04
      1340.0  1.875E+04
      1350.0  1.913E+04
      1360.0  1.952E+04
      1370.0  1.991E+04
      1380.0  2.031E+04
      1390.0  2.072E+04
      1400.0  2.114E+04
      1410.0  2.156E+04
      1420.0  2.199E+04
      1430.0  2.243E+04
      1440.0  2.287E+04
      1450.0  2.333E+04
      1460.0  2.379E+04
      1470.0  2.425E+04
      1480.0  2.473E+04
      1490.0  2.521E+04
      1500.0  2.571E+04
      1510.0  2.621E+04
      1520.0  2.672E+04
      1530.0  2.723E+04
      1540.0  2.776E+04
      1550.0  2.829E+04
      1560.0  2.884E+04
      1570.0  2.939E+04
      1580.0  2.996E+04
      1590.0  3.053E+04
      1600.0  3.111E+04
      1610.0  3.170E+04
      1620.0  3.230E+04
      1630.0  3.291E+04
      1640.0  3.354E+04
      1650.0  3.417E+04
      1660.0  3.481E+04
      1670.0  3.546E+04
      1680.0  3.612E+04
      1690.0  3.680E+04
      1700.0  3.748E+04
      1710.0  3.817E+04
      1720.0  3.888E+04
      1730.0  3.960E+04
      1740.0  4.033E+04
      1750.0  4.107E+04
      1760.0  4.182E+04
      1770.0  4.259E+04
      1780.0  4.336E+04
      1790.0  4.415E+04
      1800.0  4.495E+04
      1810.0  4.577E+04
      1820.0  4.660E+04
      1830.0  4.744E+04
      1840.0  4.829E+04
      1850.0  4.916E+04
      1860.0  5.004E+04
      1870.0  5.093E+04
      1880.0  5.184E+04
      1890.0  5.276E+04
      1900.0  5.369E+04
      1910.0  5.464E+04
      1920.0  5.561E+04
      1930.0  5.659E+04
      1940.0  5.758E+04
      1950.0  5.859E+04
      1960.0  5.962E+04
      1970.0  6.066E+04
      1980.0  6.171E+04
      1990.0  6.279E+04
      2000.0  6.388E+04
      2010.0  6.498E+04
      2020.0  6.610E+04
      2030.0  6.724E+04
      2040.0  6.840E+04
      2050.0  6.957E+04
      2060.0  7.076E+04
      2070.0  7.197E+04
      2080.0  7.319E+04
      2090.0  7.444E+04
      2100.0  7.570E+04
      2110.0  7.698E+04
      2120.0  7.828E+04
      2130.0  7.959E+04
      2140.0  8.093E+04
      2150.0  8.229E+04
      2160.0  8.366E+04
      2170.0  8.506E+04
      2180.0  8.648E+04
      2190.0  8.792E+04
      2200.0  8.938E+04
      2210.0  9.086E+04
      2220.0  9.236E+04
      2230.0  9.388E+04
      2240.0  9.542E+04
      2250.0  9.699E+04
      2260.0  9.858E+04
      2270.0  1.002E+05
      2280.0  1.018E+05
      2290.0  1.035E+05
      2300.0  1.052E+05
      2310.0  1.069E+05
      2320.0  1.086E+05
      2330.0  1.103E+05
      2340.0  1.121E+05
      2350.0  1.139E+05
      2360.0  1.157E+05
      2370.0  1.176E+05
      2380.0  1.195E+05
      2390.0  1.214E+05
      2400.0  1.233E+05
      2410.0  1.253E+05
      2420.0  1.272E+05
      2430.0  1.293E+05
      2440.0  1.313E+05
      2450.0  1.334E+05
      2460.0  1.355E+05
      2470.0  1.376E+05
      2480.0  1.397E+05
      2490.0  1.419E+05
      2500.0  1.441E+05
      2510.0  1.464E+05
      2520.0  1.486E+05
      2530.0  1.509E+05
      2540.0  1.532E+05
      2550.0  1.556E+05
      2560.0  1.580E+05
      2570.0  1.604E+05
      2580.0  1.629E+05
      2590.0  1.654E+05
      2600.0  1.679E+05
      2610.0  1.705E+05
      2620.0  1.731E+05
      2630.0  1.757E+05
      2640.0  1.783E+05
      2650.0  1.810E+05
      2660.0  1.838E+05
      2670.0  1.865E+05
      2680.0  1.893E+05
      2690.0  1.922E+05
      2700.0  1.950E+05
      2710.0  1.979E+05
      2720.0  2.009E+05
      2730.0  2.039E+05
      2740.0  2.069E+05
      2750.0  2.100E+05
      2760.0  2.131E+05
      2770.0  2.162E+05
      2780.0  2.194E+05
      2790.0  2.226E+05
      2800.0  2.259E+05
      2810.0  2.292E+05
      2820.0  2.326E+05
      2830.0  2.360E+05
      2840.0  2.394E+05
      2850.0  2.429E+05
      2860.0  2.464E+05
      2870.0  2.500E+05
      2880.0  2.536E+05
      2890.0  2.572E+05
      2900.0  2.609E+05
      2910.0  2.647E+05
      2920.0  2.685E+05
      2930.0  2.723E+05
      2940.0  2.762E+05
      2950.0  2.801E+05
      2960.0  2.841E+05
      2970.0  2.881E+05
      2980.0  2.922E+05
      2990.0  2.964E+05
      3000.0  3.005E+05
      3010.0  3.048E+05
      3020.0  3.091E+05
      3030.0  3.134E+05
      3040.0  3.178E+05
      3050.0  3.223E+05
      3060.0  3.268E+05
      3070.0  3.313E+05
      3080.0  3.359E+05
      3090.0  3.406E+05
      3100.0  3.453E+05
      3110.0  3.501E+05
      3120.0  3.549E+05
      3130.0  3.598E+05
      3140.0  3.648E+05
      3150.0  3.698E+05
      3160.0  3.748E+05
      3170.0  3.800E+05
      3180.0  3.852E+05
      3190.0  3.904E+05
      3200.0  3.957E+05
      3210.0  4.011E+05
      3220.0  4.066E+05
      3230.0  4.121E+05
      3240.0  4.176E+05
      3250.0  4.233E+05
      3260.0  4.290E+05
      3270.0  4.347E+05
      3280.0  4.406E+05
      3290.0  4.465E+05
      3300.0  4.524E+05
      3310.0  4.585E+05
      3320.0  4.646E+05
      3330.0  4.707E+05
      3340.0  4.770E+05
      3350.0  4.833E+05
      3360.0  4.897E+05
      3370.0  4.962E+05
      3380.0  5.027E+05
      3390.0  5.093E+05
      3400.0  5.160E+05
      3410.0  5.228E+05
      3420.0  5.297E+05
      3430.0  5.366E+05
      3440.0  5.436E+05
      3450.0  5.507E+05
      3460.0  5.578E+05
      3470.0  5.651E+05
      3480.0  5.724E+05
      3490.0  5.798E+05
      3500.0  5.873E+05
      3510.0  5.948E+05
      3520.0  6.025E+05
      3530.0  6.102E+05
      3540.0  6.180E+05
      3550.0  6.259E+05
      3560.0  6.339E+05
      3570.0  6.420E+05
      3580.0  6.502E+05
      3590.0  6.585E+05
      3600.0  6.669E+05
      3610.0  6.753E+05
      3620.0  6.839E+05
      3630.0  6.925E+05
      3640.0  7.012E+05
      3650.0  7.101E+05
      3660.0  7.190E+05
      3670.0  7.280E+05
      3680.0  7.371E+05
      3690.0  7.463E+05
      3700.0  7.556E+05
      3710.0  7.650E+05
      3720.0  7.746E+05
      3730.0  7.842E+05
      3740.0  7.939E+05
      3750.0  8.037E+05
      3760.0  8.136E+05
      3770.0  8.237E+05
      3780.0  8.338E+05
      3790.0  8.441E+05
      3800.0  8.545E+05
      3810.0  8.649E+05
      3820.0  8.755E+05
      3830.0  8.862E+05
      3840.0  8.970E+05
      3850.0  9.080E+05
      3860.0  9.190E+05
      3870.0  9.302E+05
      3880.0  9.414E+05
      3890.0  9.528E+05
      3900.0  9.643E+05
      3910.0  9.759E+05
      3920.0  9.877E+05
      3930.0  9.995E+05
      3940.0  1.012E+06
      3950.0  1.024E+06
      3960.0  1.036E+06
      3970.0  1.048E+06
      3980.0  1.061E+06
      3990.0  1.073E+06
      4000.0  1.086E+06
      4010.0  1.099E+06
      4020.0  1.112E+06
      4030.0  1.125E+06
      4040.0  1.139E+06
      4050.0  1.152E+06
      4060.0  1.166E+06
      4070.0  1.179E+06
      4080.0  1.193E+06
      4090.0  1.207E+06
      4100.0  1.221E+06
      4110.0  1.235E+06
      4120.0  1.250E+06
      4130.0  1.264E+06
      4140.0  1.279E+06
      4150.0  1.294E+06
      4160.0  1.309E+06
      4170.0  1.324E+06
      4180.0  1.339E+06
      4190.0  1.355E+06
      4200.0  1.370E+06
      4210.0  1.386E+06
      4220.0  1.402E+06
      4230.0  1.418E+06
      4240.0  1.434E+06
      4250.0  1.451E+06
      4260.0  1.467E+06
      4270.0  1.484E+06
      4280.0  1.501E+06
      4290.0  1.518E+06
      4300.0  1.535E+06
      4310.0  1.553E+06
      4320.0  1.570E+06
      4330.0  1.588E+06
      4340.0  1.606E+06
      4350.0  1.624E+06
      4360.0  1.642E+06
      4370.0  1.660E+06
      4380.0  1.679E+06
      4390.0  1.698E+06
      4400.0  1.717E+06
      4410.0  1.736E+06
      4420.0  1.755E+06
      4430.0  1.775E+06
      4440.0  1.795E+06
      4450.0  1.814E+06
      4460.0  1.835E+06
      4470.0  1.855E+06
      4480.0  1.875E+06
      4490.0  1.896E+06
      4500.0  1.917E+06
      4510.0  1.938E+06
      4520.0  1.959E+06
      4530.0  1.980E+06
      4540.0  2.002E+06
      4550.0  2.024E+06
      4560.0  2.046E+06
      4570.0  2.068E+06
      4580.0  2.091E+06
      4590.0  2.114E+06
      4600.0  2.136E+06
      4610.0  2.160E+06
      4620.0  2.183E+06
      4630.0  2.207E+06
      4640.0  2.230E+06
      4650.0  2.254E+06
      4660.0  2.279E+06
      4670.0  2.303E+06
      4680.0  2.328E+06
      4690.0  2.353E+06
      4700.0  2.378E+06
      4710.0  2.403E+06
      4720.0  2.429E+06
      4730.0  2.454E+06
      4740.0  2.480E+06
      4750.0  2.507E+06
      4760.0  2.533E+06
      4770.0  2.560E+06
      4780.0  2.587E+06
      4790.0  2.614E+06
      4800.0  2.642E+06
      4810.0  2.670E+06
      4820.0  2.698E+06
      4830.0  2.726E+06
      4840.0  2.754E+06
      4850.0  2.783E+06
      4860.0  2.812E+06
      4870.0  2.842E+06
      4880.0  2.871E+06
      4890.0  2.901E+06
      4900.0  2.931E+06
      4910.0  2.961E+06
      4920.0  2.992E+06
      4930.0  3.023E+06
      4940.0  3.054E+06
      4950.0  3.086E+06
      4960.0  3.117E+06
      4970.0  3.149E+06
      4980.0  3.182E+06
      4990.0  3.214E+06
         0.0  8.537E+02
       200.4  1.417E+03
       400.8  2.305E+03
       601.2  3.686E+03
       801.6  5.779E+03
      1002.0  8.944E+03
      1202.4  1.362E+04
      1402.8  2.043E+04
      1603.2  3.013E+04
      1803.6  4.370E+04
      2004.0  6.239E+04
      2204.4  8.775E+04
      2404.8  1.217E+05
      2605.2  1.663E+05
      2805.6  2.245E+05
      3006.0  2.994E+05
      3206.4  3.949E+05
      3406.8  5.155E+05
      3607.2  6.668E+05
      3807.6  8.550E+05
      4008.0  1.087E+06
      4208.4  1.372E+06
      4408.8  1.719E+06
      4609.2  2.140E+06
      4809.6  2.646E+06
      5010.0  3.252E+06
      5210.4  3.975E+06
      5410.8  4.833E+06
      5611.2  5.840E+06
      5811.6  7.007E+06
      6012.0  8.395E+06
      6212.4  1.001E+07
      6412.8  1.189E+07
      6613.2  1.407E+07
      6813.6  1.658E+07
      7014.0  1.946E+07
      7214.4  2.277E+07
      7414.8  2.654E+07
      7615.2  3.084E+07
      7815.6  3.573E+07
      8016.0  4.126E+07
      8216.4  4.750E+07
      8416.8  5.454E+07
      8617.2  6.245E+07
      8817.6  7.131E+07
      9018.0  8.124E+07
      9218.4  9.232E+07
      9418.8  1.047E+08
      9619.2  1.184E+08
      9819.6  1.337E+08
     10020.0  1.507E+08
     10220.4  1.694E+08
     10420.8  1.901E+08
     10621.2  2.128E+08
     10821.6  2.371E+08
     11022.0  2.645E+08
     11222.4  2.945E+08
     11422.8  3.272E+08
     11623.2  3.630E+08
     11823.6  4.020E+08
     12024.0  4.445E+08
     12224.4  4.906E+08
     12424.8  5.407E+08
     12625.3  5.950E+08
     12825.7  6.538E+08
     13026.1  7.174E+08
     13226.5  7.860E+08
     13426.9  8.601E+08
     13627.3  9.399E+08
     13827.7  1.026E+09
     14028.1  1.118E+09
     14228.5  1.218E+09
     14428.9  1.324E+09
     14629.3  1.439E+09
     14829.7  1.561E+09
     15030.1  1.693E+09
     15230.5  1.833E+09
     15430.9  1.984E+09
     15631.3  2.143E+09
     15831.7  2.307E+09
     16032.1  2.488E+09
     16232.5  2.681E+09
     16432.9  2.886E+09
     16633.3  3.103E+09
     16833.7  3.334E+09
     17034.1  3.578E+09
     17234.5  3.837E+09
     17434.9  4.111E+09
     17635.3  4.401E+09
     17835.7  4.707E+09
     18036.1  5.030E+09
     18236.5  5.371E+09
     18436.9  5.731E+09
     18637.3  6.111E+09
     18837.7  6.510E+09
     19038.1  6.931E+09
     19238.5  7.374E+09
     19438.9  7.840E+09
     19639.3  8.330E+09
     19839.7  8.845E+09
     20040.1  9.387E+09
     20240.5  9.956E+09
     20440.9  1.055E+10
     20641.3  1.117E+10
     20841.7  1.180E+10
     21042.1  1.248E+10
     21242.5  1.320E+10
     21442.9  1.394E+10
     21643.3  1.472E+10
     21843.7  1.554E+10
     22044.1  1.639E+10
     22244.5  1.727E+10
     22444.9  1.820E+10
     22645.3  1.916E+10
     22845.7  2.017E+10
     23046.1  2.121E+10
     23246.5  2.230E+10
     23446.9  2.343E+10
     23647.3  2.461E+10
     23847.7  2.583E+10
     24048.1  2.710E+10
     24248.5  2.843E+10
     24448.9  2.980E+10
     24649.3  3.122E+10
     24849.7  3.271E+10
     25050.1  3.425E+10
     25250.5  3.584E+10
     25450.9  3.750E+10
     25651.3  3.920E+10
     25851.7  4.089E+10
     26052.1  4.272E+10
     26252.5  4.462E+10
     26452.9  4.659E+10
     26653.3  4.862E+10
     26853.7  5.072E+10
     27054.1  5.289E+10
     27254.5  5.513E+10
     27454.9  5.744E+10
     27655.3  5.983E+10
     27855.7  6.229E+10
     28056.1  6.483E+10
     28256.5  6.745E+10
     28456.9  7.016E+10
     28657.3  7.294E+10
     28857.7  7.582E+10
     29058.1  7.878E+10
     29258.5  8.182E+10
     29458.9  8.497E+10
     29659.3  8.820E+10
     29859.7  9.154E+10
     30060.1  9.497E+10
     30260.5  9.851E+10
     30460.9  1.022E+11
     30661.3  1.058E+11
     30861.7  1.095E+11
     31062.1  1.134E+11
     31262.5  1.175E+11
     31462.9  1.216E+11
     31663.3  1.259E+11
     31863.7  1.303E+11
     32064.1  1.348E+11
     32264.5  1.394E+11
     32464.9  1.441E+11
     32665.3  1.490E+11
     32865.7  1.540E+11
     33066.1  1.591E+11
     33266.5  1.643E+11
     33466.9  1.697E+11
     33667.3  1.752E+11
     33867.7  1.808E+11
     34068.1  1.865E+11
     34268.5  1.924E+11
     34468.9  1.985E+11
     34669.3  2.047E+11
     34869.7  2.110E+11
     35070.1  2.175E+11
     35270.5  2.241E+11
     35470.9  2.310E+11
     35671.3  2.378E+11
     35871.7  2.445E+11
     36072.1  2.517E+11
     36272.5  2.591E+11
     36472.9  2.667E+11
     36673.3  2.745E+11
     36873.7  2.824E+11
     37074.1  2.904E+11
     37274.5  2.987E+11
     37474.9  3.071E+11
     37675.4  3.157E+11
     37875.8  3.244E+11
     38076.2  3.333E+11
     38276.6  3.425E+11
     38477.0  3.517E+11
     38677.4  3.612E+11
     38877.8  3.709E+11
     39078.2  3.807E+11
     39278.6  3.908E+11
     39479.0  4.010E+11
     39679.4  4.115E+11
     39879.8  4.222E+11
     40080.2  4.330E+11
     40280.6  4.441E+11
     40481.0  4.555E+11
     40681.4  4.668E+11
     40881.8  4.776E+11
     41082.2  4.896E+11
     41282.6  5.017E+11
     41483.0  5.141E+11
     41683.4  5.266E+11
     41883.8  5.394E+11
     42084.2  5.524E+11
     42284.6  5.656E+11
     42485.0  5.791E+11
     42685.4  5.928E+11
     42885.8  6.067E+11
     43086.2  6.208E+11
     43286.6  6.352E+11
     43487.0  6.498E+11
     43687.4  6.646E+11
     43887.8  6.797E+11
     44088.2  6.951E+11
     44288.6  7.106E+11
     44489.0  7.265E+11
     44689.4  7.426E+11
     44889.8  7.590E+11
     45090.2  7.756E+11
     45290.6  7.926E+11
     45491.0  8.098E+11
     45691.4  8.269E+11
     45891.8  8.432E+11
     46092.2  8.612E+11
     46292.6  8.794E+11
     46493.0  8.980E+11
     46693.4  9.167E+11
     46893.8  9.358E+11
     47094.2  9.551E+11
     47294.6  9.747E+11
     47495.0  9.946E+11
     47695.4  1.015E+12
     47895.8  1.035E+12
     48096.2  1.056E+12
     48296.6  1.077E+12
     48497.0  1.098E+12
     48697.4  1.120E+12
     48897.8  1.142E+12
     49098.2  1.164E+12
     49298.6  1.186E+12
     49499.0  1.209E+12
     49699.4  1.232E+12
     49899.8  1.256E+12
     50100.2  1.280E+12
     50300.6  1.304E+12
     50501.0  1.328E+12
     50701.4  1.352E+12
     50901.8  1.375E+12
     51102.2  1.401E+12
     51302.6  1.426E+12
     51503.0  1.452E+12
     51703.4  1.479E+12
     51903.8  1.505E+12
     52104.2  1.532E+12
     52304.6  1.560E+12
     52505.0  1.587E+12
     52705.4  1.615E+12
     52905.8  1.643E+12
     53106.2  1.672E+12
     53306.6  1.701E+12
     53507.0  1.730E+12
     53707.4  1.760E+12
     53907.8  1.790E+12
     54108.2  1.820E+12
     54308.6  1.851E+12
     54509.0  1.882E+12
     54709.4  1.913E+12
     54909.8  1.945E+12
     55110.2  1.977E+12
     55310.6  2.010E+12
     55511.0  2.043E+12
     55711.4  2.075E+12
     55911.8  2.106E+12
     56112.2  2.140E+12
     56312.6  2.174E+12
     56513.0  2.209E+12
     56713.4  2.244E+12
     56913.8  2.280E+12
     57114.2  2.315E+12
     57314.6  2.352E+12
     57515.0  2.388E+12
     57715.4  2.425E+12
     57915.8  2.462E+12
     58116.2  2.500E+12
     58316.6  2.538E+12
     58517.0  2.577E+12
     58717.4  2.615E+12
     58917.8  2.655E+12
     59118.2  2.694E+12
     59318.6  2.734E+12
     59519.0  2.775E+12
     59719.4  2.815E+12
     59919.8  2.857E+12
     60120.2  2.898E+12
     60320.6  2.940E+12
     60521.0  2.983E+12
     60721.4  3.025E+12
     60921.8  3.064E+12
     61122.2  3.108E+12
     61322.6  3.152E+12
     61523.0  3.196E+12
     61723.4  3.241E+12
     61923.8  3.287E+12
     62124.2  3.332E+12
     62324.6  3.378E+12
     62525.1  3.425E+12
     62725.5  3.472E+12
     62925.9  3.519E+12
     63126.3  3.567E+12
     63326.7  3.615E+12
     63527.1  3.664E+12
     63727.5  3.713E+12
     63927.9  3.762E+12
     64128.3  3.812E+12
     64328.7  3.862E+12
     64529.1  3.913E+12
     64729.5  3.964E+12
     64929.9  4.016E+12
     65130.3  4.068E+12
     65330.7  4.120E+12
     65531.1  4.173E+12
     65731.5  4.226E+12
     65931.9  4.274E+12
     66132.3  4.328E+12
     66332.7  4.383E+12
     66533.1  4.438E+12
     66733.5  4.494E+12
     66933.9  4.550E+12
     67134.3  4.606E+12
     67334.7  4.663E+12
     67535.1  4.721E+12
     67735.5  4.778E+12
     67935.9  4.836E+12
     68136.3  4.895E+12
     68336.7  4.954E+12
     68537.1  5.014E+12
     68737.5  5.074E+12
     68937.9  5.134E+12
     69138.3  5.195E+12
     69338.7  5.256E+12
     69539.1  5.318E+12
     69739.5  5.380E+12
     69939.9  5.443E+12
     70140.3  5.506E+12
     70340.7  5.570E+12
     70541.1  5.635E+12
     70741.5  5.698E+12
     70941.9  5.756E+12
     71142.3  5.821E+12
     71342.7  5.887E+12
     71543.1  5.954E+12
     71743.5  6.021E+12
     71943.9  6.088E+12
     72144.3  6.156E+12
     72344.7  6.225E+12
     72545.1  6.293E+12
     72745.5  6.363E+12
     72945.9  6.432E+12
     73146.3  6.503E+12
     73346.7  6.573E+12
     73547.1  6.644E+12
     73747.5  6.716E+12
     73947.9  6.788E+12
     74148.3  6.860E+12
     74348.7  6.933E+12
     74549.1  7.007E+12
     74749.5  7.081E+12
     74949.9  7.155E+12
     75150.3  7.230E+12
     75350.7  7.306E+12
     75551.1  7.380E+12
     75751.5  3.975E-31
     75951.9  3.975E-31
     76152.3  3.975E-31
     76352.7  3.975E-31
     76553.1  3.975E-31
     76753.5  3.975E-31
     76953.9  3.975E-31
     77154.3  3.975E-31
     77354.7  3.975E-31
     77555.1  3.975E-31
     77755.5  3.975E-31
     77955.9  3.975E-31
     78156.3  3.975E-31
     78356.7  3.975E-31
     78557.1  3.975E-31
     78757.5  3.975E-31
     78957.9  3.975E-31
     79158.3  3.975E-31
     79358.7  3.975E-31
     79559.1  3.975E-31
     79759.5  3.975E-31
     79959.9  3.975E-31
     80160.3  3.975E-31
     80360.7  3.975E-31
     80561.1  3.975E-31
     80761.5  3.975E-31
     80961.9  3.975E-31
     81162.3  3.975E-31
     81362.7  3.975E-31
     81563.1  3.975E-31
     81763.5  3.975E-31
     81963.9  3.975E-31
     82164.3  3.975E-31
     82364.7  3.975E-31
     82565.1  3.975E-31
     82765.5  3.975E-31
     82965.9  3.975E-31
     83166.3  3.975E-31
     83366.7  3.975E-31
     83567.1  3.975E-31
     83767.5  3.975E-31
     83967.9  3.975E-31
     84168.3  3.975E-31
     84368.7  3.975E-31
     84569.1  3.975E-31
     84769.5  3.975E-31
     84969.9  3.975E-31
     85170.3  3.975E-31
     85370.7  3.975E-31
     85571.1  3.975E-31
     85771.5  3.975E-31
     85971.9  3.975E-31
     86172.3  3.975E-31
     86372.7  3.975E-31
     86573.1  3.975E-31
     86773.5  3.975E-31
     86973.9  3.975E-31
     87174.3  3.975E-31
     87374.7  3.975E-31
     87575.2  3.975E-31
     87775.6  3.975E-31
     87976.0  3.975E-31
     88176.4  3.975E-31
     88376.8  3.975E-31
     88577.2  3.975E-31
     88777.6  3.975E-31
     88978.0  3.975E-31
     89178.4  3.975E-31
     89378.8  3.975E-31
     89579.2  3.975E-31
     89779.6  3.975E-31
     89980.0  3.975E-31
     90180.4  3.975E-31
     90380.8  3.975E-31
     90581.2  3.975E-31
     90781.6  3.975E-31
     90982.0  3.975E-31
     91182.4  3.975E-31
     91382.8  3.975E-31
     91583.2  3.975E-31
     91783.6  3.975E-31
     91984.0  3.975E-31
     92184.4  3.975E-31
     92384.8  3.975E-31
     92585.2  3.975E-31
     92785.6  3.975E-31
     92986.0  3.975E-31
     93186.4  3.975E-31
     93386.8  3.975E-31
     93587.2  3.975E-31
     93787.6  3.975E-31
     93988.0  3.975E-31
     94188.4  3.975E-31
     94388.8  3.975E-31
     94589.2  3.975E-31
     94789.6  3.975E-31
     94990.0  3.975E-31
     95190.4  3.975E-31
     95390.8  3.975E-31
     95591.2  3.975E-31
     95791.6  3.975E-31
     95992.0  3.975E-31
     96192.4  3.975E-31
     96392.8  3.975E-31
     96593.2  3.975E-31
     96793.6  3.975E-31
     96994.0  3.975E-31
     97194.4  3.975E-31
     97394.8  3.975E-31
     97595.2  3.975E-31
     97795.6  3.975E-31
     97996.0  3.975E-31
     98196.4  3.975E-31
     98396.8  3.975E-31
     98597.2  3.975E-31
     98797.6  3.975E-31
     98998.0  3.975E-31
     99198.4  3.975E-31
     99398.8  3.975E-31
     99599.2  3.975E-31
     99799.6  3.975E-31
    100000.0  3.975E-31

....................................................
          2023/03/24   07:09:58.558   (Local Time)
          year/mm/dd   hr:mi:second
                 CPU :        2.483 s (  0.001 hr)
....................................................

RESULTS FOR 1.E+04 TRIALS
****Shifted Thermal (at Tvib)****
     Tvib   =  300.0 K
     Ttrans = 2000.0 K
     Press  =  1.000E+00 Torr
          N =  4.828E+15 /cm3
Coll. Freq. =  2.419E+06 /s at E = 24290.5 cm-1
Initial Molecule: C2H3F3____
E(shift) =       0.0 cm-1
Starting random number seed = 1948868851
Ending   random number seed =  817237229


CUMULATIVE DISTRIBUTION FXNS FOR STARTING ENERGIES (Pstart)

    ENERGY   P(calc)    P(actual) 
        0.0  0.0714210  0.0714000
       10.0  0.1085537  0.1104000
       20.0  0.1439476  0.1423000
       30.0  0.1664386  0.1673000
       40.0  0.1878764  0.1874000
       50.0  0.2083103  0.2091000
       60.0  0.2180488  0.2164000
       70.0  0.2273313  0.2238000
       80.0  0.2450269  0.2414000
       90.0  0.2534604  0.2499000
      100.0  0.2614990  0.2580000
      110.0  0.2691612  0.2661000
      120.0  0.2764645  0.2718000
      130.0  0.2834259  0.2782000
      140.0  0.2900613  0.2849000
      150.0  0.2963859  0.2905000
      160.0  0.3024144  0.2967000
      170.0  0.3081606  0.3029000
      180.0  0.3136378  0.3089000
      190.0  0.3188584  0.3145000
      200.0  0.3238346  0.3187000
      210.0  0.3238346  0.3187000
      220.0  0.3283556  0.3232000
      230.0  0.3563663  0.3542000
      240.0  0.3727965  0.3710000
      250.0  0.3845420  0.3840000
      260.0  0.3957376  0.3957000
      270.0  0.4064089  0.4073000
      280.0  0.4131900  0.4162000
      290.0  0.4196535  0.4230000
      300.0  0.4258144  0.4292000
      310.0  0.4316867  0.4354000
      320.0  0.4372841  0.4413000
      330.0  0.4426194  0.4456000
      340.0  0.4451621  0.4479000
      350.0  0.4500094  0.4528000
      360.0  0.4546297  0.4571000
      370.0  0.4568317  0.4592000
      380.0  0.4610294  0.4627000
      390.0  0.4850364  0.4838000
      400.0  0.5002915  0.5000000
      410.0  0.5130148  0.5123000
      420.0  0.5234097  0.5228000
      430.0  0.5333179  0.5341000
      440.0  0.5396140  0.5403000
      450.0  0.5538671  0.5556000
      460.0  0.5624475  0.5643000
      470.0  0.5747154  0.5762000
      480.0  0.5799125  0.5797000
      490.0  0.5873431  0.5880000
      500.0  0.5932453  0.5945000
      510.0  0.5977459  0.5994000
      520.0  0.6020358  0.6028000
      530.0  0.6081693  0.6092000
      540.0  0.6110925  0.6119000
      550.0  0.6157363  0.6152000
      560.0  0.6192773  0.6190000
      570.0  0.6226526  0.6226000
      580.0  0.6347170  0.6344000
      590.0  0.6431500  0.6438000
      600.0  0.6482651  0.6487000
      610.0  0.6545338  0.6555000
      620.0  0.6664839  0.6692000
      630.0  0.6759761  0.6779000
      640.0  0.6814047  0.6835000
      650.0  0.6934783  0.6954000
      660.0  0.7033425  0.7060000
      670.0  0.7101330  0.7123000
      680.0  0.7166056  0.7201000
      690.0  0.7218259  0.7262000
      700.0  0.7272541  0.7301000
      710.0  0.7311346  0.7344000
      720.0  0.7356554  0.7387000
      730.0  0.7387892  0.7408000
      740.0  0.7425231  0.7437000
      750.0  0.7460822  0.7476000
      760.0  0.7484568  0.7497000
      770.0  0.7516904  0.7527000
      780.0  0.7592415  0.7625000
      790.0  0.7636482  0.7654000
      800.0  0.7686886  0.7701000
      810.0  0.7756282  0.7765000
      820.0  0.7812252  0.7832000
      830.0  0.7861964  0.7884000
      840.0  0.7933618  0.7969000
      850.0  0.7984291  0.8024000
      860.0  0.8032591  0.8070000
      870.0  0.8066620  0.8110000
      880.0  0.8115272  0.8164000
      890.0  0.8151644  0.8209000
      900.0  0.8181112  0.8235000
      910.0  0.8219940  0.8273000
      920.0  0.8256163  0.8300000
      930.0  0.8280181  0.8328000
      940.0  0.8308798  0.8362000
      950.0  0.8331983  0.8388000
      960.0  0.8354083  0.8400000
      970.0  0.8403234  0.8437000
      980.0  0.8444572  0.8474000
      990.0  0.8469339  0.8502000
     1000.0  0.8503856  0.8550000
     1010.0  0.8545621  0.8603000
     1020.0  0.8577143  0.8636000
     1030.0  0.8612764  0.8669000
     1040.0  0.8658233  0.8722000
     1050.0  0.8701291  0.8770000
     1060.0  0.8730127  0.8800000
     1070.0  0.8760809  0.8834000
     1080.0  0.8785180  0.8866000
     1090.0  0.8814217  0.8891000
     1100.0  0.8840234  0.8921000
     1110.0  0.8866616  0.8951000
     1120.0  0.8884922  0.8972000
     1130.0  0.8907357  0.8999000
     1140.0  0.8930477  0.9022000
     1150.0  0.8947376  0.9036000
     1160.0  0.8966887  0.9053000
     1170.0  0.9000442  0.9084000
     1180.0  0.9021714  0.9107000
     1190.0  0.9043715  0.9120000
     1200.0  0.9070855  0.9145000
     1210.0  0.9094502  0.9158000
     1220.0  0.9114427  0.9184000
     1230.0  0.9147366  0.9208000
     1240.0  0.9172370  0.9225000
     1250.0  0.9193400  0.9244000
     1260.0  0.9212211  0.9269000
     1270.0  0.9232199  0.9291000
     1280.0  0.9249102  0.9308000
     1290.0  0.9263746  0.9321000
     1300.0  0.9282116  0.9344000
     1310.0  0.9297968  0.9361000
     1320.0  0.9313308  0.9373000
     1330.0  0.9328225  0.9384000
     1340.0  0.9339501  0.9394000
     1350.0  0.9351050  0.9408000
     1360.0  0.9369344  0.9425000
     1370.0  0.9385296  0.9434000
     1380.0  0.9396454  0.9446000
     1390.0  0.9410533  0.9459000
     1400.0  0.9427604  0.9478000
     1410.0  0.9442774  0.9488000
     1420.0  0.9459047  0.9504000
     1430.0  0.9476309  0.9519000
     1440.0  0.9491700  0.9540000
     1450.0  0.9503850  0.9549000
     1460.0  0.9517322  0.9559000
     1470.0  0.9527722  0.9565000
     1480.0  0.9539514  0.9577000
     1490.0  0.9552136  0.9585000
     1500.0  0.9563191  0.9594000
     1510.0  0.9571745  0.9603000
     1520.0  0.9581922  0.9610000
     1530.0  0.9591551  0.9613000
     1540.0  0.9600006  0.9625000
     1550.0  0.9608755  0.9628000
     1560.0  0.9621910  0.9638000
     1570.0  0.9630394  0.9649000
     1580.0  0.9639388  0.9658000
     1590.0  0.9649144  0.9670000
     1600.0  0.9657850  0.9676000
     1610.0  0.9665466  0.9683000
     1620.0  0.9676895  0.9693000
     1630.0  0.9686831  0.9699000
     1640.0  0.9695470  0.9707000
     1650.0  0.9703539  0.9715000
     1660.0  0.9711283  0.9727000
     1670.0  0.9718880  0.9728000
     1680.0  0.9726038  0.9733000
     1690.0  0.9733195  0.9737000
     1700.0  0.9739662  0.9749000
     1710.0  0.9746117  0.9754000
     1720.0  0.9752728  0.9762000
     1730.0  0.9757616  0.9768000
     1740.0  0.9763365  0.9772000
     1750.0  0.9770825  0.9780000
     1760.0  0.9777151  0.9785000
     1770.0  0.9781872  0.9788000
     1780.0  0.9787369  0.9793000
     1790.0  0.9793559  0.9801000
     1800.0  0.9798951  0.9803000
     1810.0  0.9804968  0.9804000
     1820.0  0.9811345  0.9814000
     1830.0  0.9816899  0.9824000
     1840.0  0.9821690  0.9827000
     1850.0  0.9826478  0.9829000
     1860.0  0.9830880  0.9831000
     1870.0  0.9835368  0.9838000
     1880.0  0.9840193  0.9842000
     1890.0  0.9844426  0.9847000
     1900.0  0.9848240  0.9849000
     1910.0  0.9852257  0.9851000
     1920.0  0.9855942  0.9852000
     1930.0  0.9859262  0.9856000
     1940.0  0.9862855  0.9861000
     1950.0  0.9867077  0.9864000
     1960.0  0.9870235  0.9867000
     1970.0  0.9873534  0.9869000
     1980.0  0.9877122  0.9872000
     1990.0  0.9880352  0.9881000
     2000.0  0.9883464  0.9886000
     2010.0  0.9887358  0.9891000
     2020.0  0.9890760  0.9893000
     2030.0  0.9893773  0.9896000
     2040.0  0.9896791  0.9896000
     2050.0  0.9899569  0.9897000
     2060.0  0.9902490  0.9899000
     2070.0  0.9905283  0.9903000
     2080.0  0.9907971  0.9906000
     2090.0  0.9910466  0.9909000
     2100.0  0.9912883  0.9912000
     2110.0  0.9915262  0.9914000
     2120.0  0.9917245  0.9918000
     2130.0  0.9919366  0.9920000
     2140.0  0.9921989  0.9922000
     2150.0  0.9924171  0.9925000
     2160.0  0.9925953  0.9928000
     2170.0  0.9927907  0.9932000
     2180.0  0.9929910  0.9937000
     2190.0  0.9931764  0.9937000
     2200.0  0.9933817  0.9941000
     2210.0  0.9935977  0.9945000
     2220.0  0.9937919  0.9946000
     2230.0  0.9939693  0.9947000
     2240.0  0.9941412  0.9948000
     2250.0  0.9943028  0.9951000
     2260.0  0.9944700  0.9952000
     2270.0  0.9946359  0.9952000
     2280.0  0.9947899  0.9952000
     2290.0  0.9949317  0.9952000
     2300.0  0.9950762  0.9954000
     2310.0  0.9952061  0.9954000
     2320.0  0.9953388  0.9955000
     2330.0  0.9954728  0.9955000
     2340.0  0.9956125  0.9956000
     2350.0  0.9957256  0.9958000
     2360.0  0.9958395  0.9958000
     2370.0  0.9959592  0.9960000
     2380.0  0.9960669  0.9961000
     2390.0  0.9961769  0.9961000
     2400.0  0.9963011  0.9961000
     2410.0  0.9964159  0.9962000
     2420.0  0.9965178  0.9965000
     2430.0  0.9966199  0.9966000
     2440.0  0.9967170  0.9968000
     2450.0  0.9968143  0.9972000
     2460.0  0.9969130  0.9972000
     2470.0  0.9970050  0.9974000
     2480.0  0.9970899  0.9974000
     2490.0  0.9971746  0.9974000
     2500.0  0.9972556  0.9975000
     2510.0  0.9973279  0.9976000
     2520.0  0.9974023  0.9977000
     2530.0  0.9974836  0.9978000
     2540.0  0.9975571  0.9979000
     2550.0  0.9976213  0.9979000
     2560.0  0.9976863  0.9979000
     2570.0  0.9977518  0.9980000
     2580.0  0.9978165  0.9980000
     2590.0  0.9978841  0.9980000
     2600.0  0.9979506  0.9980000
     2610.0  0.9980135  0.9980000
     2620.0  0.9980723  0.9982000
     2630.0  0.9981288  0.9982000
     2640.0  0.9981839  0.9983000
     2650.0  0.9982405  0.9984000
     2660.0  0.9982963  0.9985000
     2670.0  0.9983472  0.9985000
     2680.0  0.9983944  0.9985000
     2690.0  0.9984423  0.9986000
     2700.0  0.9984851  0.9987000
     2710.0  0.9985293  0.9989000
     2720.0  0.9985739  0.9990000
     2730.0  0.9986190  0.9990000
     2740.0  0.9986574  0.9990000
     2750.0  0.9986946  0.9991000
     2760.0  0.9987322  0.9991000
     2770.0  0.9987682  0.9992000
     2780.0  0.9988037  0.9992000
     2790.0  0.9988420  0.9992000
     2800.0  0.9988785  0.9992000
     2810.0  0.9989124  0.9992000
     2820.0  0.9989451  0.9992000
     2830.0  0.9989767  0.9992000
     2840.0  0.9990089  0.9992000
     2850.0  0.9990409  0.9992000
     2860.0  0.9990703  0.9992000
     2870.0  0.9990981  0.9992000
     2880.0  0.9991254  0.9992000
     2890.0  0.9991516  0.9993000
     2900.0  0.9991757  0.9993000
     2910.0  0.9992004  0.9993000
     2920.0  0.9992257  0.9993000
     2930.0  0.9992492  0.9993000
     2940.0  0.9992702  0.9993000
     2950.0  0.9992911  0.9993000
     2960.0  0.9993118  0.9993000
     2970.0  0.9993327  0.9994000
     2980.0  0.9993533  0.9994000
     2990.0  0.9993739  0.9994000
     3000.0  0.9993935  0.9994000
     3010.0  0.9994120  0.9994000
     3020.0  0.9994294  0.9994000
     3030.0  0.9994470  0.9994000
     3040.0  0.9994649  0.9995000
     3050.0  0.9994821  0.9995000
     3060.0  0.9994980  0.9995000
     3070.0  0.9995132  0.9997000
     3080.0  0.9995281  0.9997000
     3090.0  0.9995419  0.9997000
     3100.0  0.9995557  0.9997000
     3110.0  0.9995696  0.9997000
     3120.0  0.9995832  0.9997000
     3130.0  0.9995955  0.9997000
     3140.0  0.9996072  0.9997000
     3150.0  0.9996190  0.9997000
     3160.0  0.9996305  0.9997000
     3170.0  0.9996417  0.9997000
     3180.0  0.9996531  0.9997000
     3190.0  0.9996643  0.9997000
     3200.0  0.9996747  0.9998000
     3210.0  0.9996846  0.9998000
     3220.0  0.9996943  0.9998000
     3230.0  0.9997043  0.9998000
     3240.0  0.9997140  0.9999000
     3250.0  0.9997230  0.9999000
     3260.0  0.9997316  0.9999000
     3270.0  0.9997399  0.9999000
     3280.0  0.9997478  0.9999000
     3290.0  0.9997554  0.9999000
     3300.0  0.9997631  0.9999000
     3310.0  0.9997708  0.9999000
     3320.0  0.9997779  0.9999000
     3330.0  0.9997845  0.9999000
     3340.0  0.9997909  0.9999000
     3350.0  0.9997972  0.9999000
     3360.0  0.9998035  0.9999000
     3370.0  0.9998097  1.0000000

....................................................
          2023/03/24   07:10:01.271   (Local Time)
          year/mm/dd   hr:mi:second
                 CPU :        5.180 s (  0.001 hr)
....................................................

RESULTS FOR 1.E+04 TRIALS
****Shifted Thermal (at Tvib)****
     Tvib   =  300.0 K
     Ttrans = 2000.0 K
     Press  =  1.000E+01 Torr
          N =  4.828E+16 /cm3
Coll. Freq. =  2.419E+07 /s at E = 24290.5 cm-1
Initial Molecule: C2H3F3____
E(shift) =       0.0 cm-1
Starting random number seed =  817237229
Ending   random number seed = 1816748678


CUMULATIVE DISTRIBUTION FXNS FOR STARTING ENERGIES (Pstart)

    ENERGY   P(calc)    P(actual) 
        0.0  0.0714210  0.0722000
       10.0  0.1085537  0.1114000
       20.0  0.1439476  0.1451000
       30.0  0.1664386  0.1685000
       40.0  0.1878764  0.1898000
       50.0  0.2083103  0.2082000
       60.0  0.2180488  0.2173000
       70.0  0.2273313  0.2272000
       80.0  0.2450269  0.2437000
       90.0  0.2534604  0.2511000
      100.0  0.2614990  0.2605000
      110.0  0.2691612  0.2692000
      120.0  0.2764645  0.2789000
      130.0  0.2834259  0.2865000
      140.0  0.2900613  0.2929000
      150.0  0.2963859  0.2982000
      160.0  0.3024144  0.3046000
      170.0  0.3081606  0.3105000
      180.0  0.3136378  0.3157000
      190.0  0.3188584  0.3199000
      200.0  0.3238346  0.3266000
      210.0  0.3238346  0.3266000
      220.0  0.3283556  0.3304000
      230.0  0.3563663  0.3595000
      240.0  0.3727965  0.3759000
      250.0  0.3845420  0.3879000
      260.0  0.3957376  0.3985000
      270.0  0.4064089  0.4092000
      280.0  0.4131900  0.4142000
      290.0  0.4196535  0.4195000
      300.0  0.4258144  0.4259000
      310.0  0.4316867  0.4325000
      320.0  0.4372841  0.4377000
      330.0  0.4426194  0.4421000
      340.0  0.4451621  0.4447000
      350.0  0.4500094  0.4482000
      360.0  0.4546297  0.4523000
      370.0  0.4568317  0.4542000
      380.0  0.4610294  0.4582000
      390.0  0.4850364  0.4826000
      400.0  0.5002915  0.4987000
      410.0  0.5130148  0.5122000
      420.0  0.5234097  0.5206000
      430.0  0.5333179  0.5314000
      440.0  0.5396140  0.5393000
      450.0  0.5538671  0.5522000
      460.0  0.5624475  0.5621000
      470.0  0.5747154  0.5736000
      480.0  0.5799125  0.5791000
      490.0  0.5873431  0.5862000
      500.0  0.5932453  0.5912000
      510.0  0.5977459  0.5945000
      520.0  0.6020358  0.5978000
      530.0  0.6081693  0.6032000
      540.0  0.6110925  0.6053000
      550.0  0.6157363  0.6095000
      560.0  0.6192773  0.6112000
      570.0  0.6226526  0.6139000
      580.0  0.6347170  0.6270000
      590.0  0.6431500  0.6357000
      600.0  0.6482651  0.6402000
      610.0  0.6545338  0.6454000
      620.0  0.6664839  0.6598000
      630.0  0.6759761  0.6687000
      640.0  0.6814047  0.6731000
      650.0  0.6934783  0.6847000
      660.0  0.7033425  0.6951000
      670.0  0.7101330  0.7016000
      680.0  0.7166056  0.7094000
      690.0  0.7218259  0.7158000
      700.0  0.7272541  0.7218000
      710.0  0.7311346  0.7260000
      720.0  0.7356554  0.7297000
      730.0  0.7387892  0.7324000
      740.0  0.7425231  0.7368000
      750.0  0.7460822  0.7402000
      760.0  0.7484568  0.7423000
      770.0  0.7516904  0.7457000
      780.0  0.7592415  0.7539000
      790.0  0.7636482  0.7594000
      800.0  0.7686886  0.7638000
      810.0  0.7756282  0.7719000
      820.0  0.7812252  0.7778000
      830.0  0.7861964  0.7819000
      840.0  0.7933618  0.7881000
      850.0  0.7984291  0.7936000
      860.0  0.8032591  0.7995000
      870.0  0.8066620  0.8033000
      880.0  0.8115272  0.8084000
      890.0  0.8151644  0.8110000
      900.0  0.8181112  0.8142000
      910.0  0.8219940  0.8191000
      920.0  0.8256163  0.8225000
      930.0  0.8280181  0.8256000
      940.0  0.8308798  0.8284000
      950.0  0.8331983  0.8315000
      960.0  0.8354083  0.8331000
      970.0  0.8403234  0.8386000
      980.0  0.8444572  0.8429000
      990.0  0.8469339  0.8460000
     1000.0  0.8503856  0.8499000
     1010.0  0.8545621  0.8541000
     1020.0  0.8577143  0.8570000
     1030.0  0.8612764  0.8607000
     1040.0  0.8658233  0.8652000
     1050.0  0.8701291  0.8697000
     1060.0  0.8730127  0.8724000
     1070.0  0.8760809  0.8752000
     1080.0  0.8785180  0.8768000
     1090.0  0.8814217  0.8803000
     1100.0  0.8840234  0.8823000
     1110.0  0.8866616  0.8856000
     1120.0  0.8884922  0.8876000
     1130.0  0.8907357  0.8895000
     1140.0  0.8930477  0.8911000
     1150.0  0.8947376  0.8928000
     1160.0  0.8966887  0.8948000
     1170.0  0.9000442  0.8976000
     1180.0  0.9021714  0.8997000
     1190.0  0.9043715  0.9018000
     1200.0  0.9070855  0.9050000
     1210.0  0.9094502  0.9080000
     1220.0  0.9114427  0.9095000
     1230.0  0.9147366  0.9133000
     1240.0  0.9172370  0.9151000
     1250.0  0.9193400  0.9170000
     1260.0  0.9212211  0.9194000
     1270.0  0.9232199  0.9209000
     1280.0  0.9249102  0.9225000
     1290.0  0.9263746  0.9250000
     1300.0  0.9282116  0.9270000
     1310.0  0.9297968  0.9288000
     1320.0  0.9313308  0.9301000
     1330.0  0.9328225  0.9316000
     1340.0  0.9339501  0.9332000
     1350.0  0.9351050  0.9343000
     1360.0  0.9369344  0.9357000
     1370.0  0.9385296  0.9371000
     1380.0  0.9396454  0.9383000
     1390.0  0.9410533  0.9391000
     1400.0  0.9427604  0.9414000
     1410.0  0.9442774  0.9431000
     1420.0  0.9459047  0.9443000
     1430.0  0.9476309  0.9454000
     1440.0  0.9491700  0.9467000
     1450.0  0.9503850  0.9474000
     1460.0  0.9517322  0.9488000
     1470.0  0.9527722  0.9501000
     1480.0  0.9539514  0.9515000
     1490.0  0.9552136  0.9530000
     1500.0  0.9563191  0.9543000
     1510.0  0.9571745  0.9556000
     1520.0  0.9581922  0.9561000
     1530.0  0.9591551  0.9572000
     1540.0  0.9600006  0.9578000
     1550.0  0.9608755  0.9588000
     1560.0  0.9621910  0.9603000
     1570.0  0.9630394  0.9609000
     1580.0  0.9639388  0.9619000
     1590.0  0.9649144  0.9629000
     1600.0  0.9657850  0.9634000
     1610.0  0.9665466  0.9643000
     1620.0  0.9676895  0.9652000
     1630.0  0.9686831  0.9666000
     1640.0  0.9695470  0.9681000
     1650.0  0.9703539  0.9688000
     1660.0  0.9711283  0.9696000
     1670.0  0.9718880  0.9702000
     1680.0  0.9726038  0.9711000
     1690.0  0.9733195  0.9719000
     1700.0  0.9739662  0.9728000
     1710.0  0.9746117  0.9737000
     1720.0  0.9752728  0.9742000
     1730.0  0.9757616  0.9751000
     1740.0  0.9763365  0.9758000
     1750.0  0.9770825  0.9770000
     1760.0  0.9777151  0.9775000
     1770.0  0.9781872  0.9777000
     1780.0  0.9787369  0.9779000
     1790.0  0.9793559  0.9784000
     1800.0  0.9798951  0.9790000
     1810.0  0.9804968  0.9796000
     1820.0  0.9811345  0.9805000
     1830.0  0.9816899  0.9812000
     1840.0  0.9821690  0.9817000
     1850.0  0.9826478  0.9825000
     1860.0  0.9830880  0.9830000
     1870.0  0.9835368  0.9836000
     1880.0  0.9840193  0.9842000
     1890.0  0.9844426  0.9847000
     1900.0  0.9848240  0.9849000
     1910.0  0.9852257  0.9853000
     1920.0  0.9855942  0.9860000
     1930.0  0.9859262  0.9864000
     1940.0  0.9862855  0.9867000
     1950.0  0.9867077  0.9871000
     1960.0  0.9870235  0.9876000
     1970.0  0.9873534  0.9880000
     1980.0  0.9877122  0.9885000
     1990.0  0.9880352  0.9889000
     2000.0  0.9883464  0.9893000
     2010.0  0.9887358  0.9895000
     2020.0  0.9890760  0.9900000
     2030.0  0.9893773  0.9901000
     2040.0  0.9896791  0.9905000
     2050.0  0.9899569  0.9907000
     2060.0  0.9902490  0.9909000
     2070.0  0.9905283  0.9910000
     2080.0  0.9907971  0.9911000
     2090.0  0.9910466  0.9912000
     2100.0  0.9912883  0.9914000
     2110.0  0.9915262  0.9916000
     2120.0  0.9917245  0.9918000
     2130.0  0.9919366  0.9922000
     2140.0  0.9921989  0.9925000
     2150.0  0.9924171  0.9926000
     2160.0  0.9925953  0.9928000
     2170.0  0.9927907  0.9930000
     2180.0  0.9929910  0.9931000
     2190.0  0.9931764  0.9931000
     2200.0  0.9933817  0.9934000
     2210.0  0.9935977  0.9936000
     2220.0  0.9937919  0.9938000
     2230.0  0.9939693  0.9940000
     2240.0  0.9941412  0.9942000
     2250.0  0.9943028  0.9943000
     2260.0  0.9944700  0.9945000
     2270.0  0.9946359  0.9945000
     2280.0  0.9947899  0.9945000
     2290.0  0.9949317  0.9945000
     2300.0  0.9950762  0.9946000
     2310.0  0.9952061  0.9948000
     2320.0  0.9953388  0.9948000
     2330.0  0.9954728  0.9952000
     2340.0  0.9956125  0.9953000
     2350.0  0.9957256  0.9955000
     2360.0  0.9958395  0.9957000
     2370.0  0.9959592  0.9959000
     2380.0  0.9960669  0.9962000
     2390.0  0.9961769  0.9964000
     2400.0  0.9963011  0.9966000
     2410.0  0.9964159  0.9967000
     2420.0  0.9965178  0.9967000
     2430.0  0.9966199  0.9967000
     2440.0  0.9967170  0.9967000
     2450.0  0.9968143  0.9968000
     2460.0  0.9969130  0.9970000
     2470.0  0.9970050  0.9973000
     2480.0  0.9970899  0.9973000
     2490.0  0.9971746  0.9974000
     2500.0  0.9972556  0.9975000
     2510.0  0.9973279  0.9975000
     2520.0  0.9974023  0.9975000
     2530.0  0.9974836  0.9975000
     2540.0  0.9975571  0.9975000
     2550.0  0.9976213  0.9975000
     2560.0  0.9976863  0.9975000
     2570.0  0.9977518  0.9977000
     2580.0  0.9978165  0.9977000
     2590.0  0.9978841  0.9977000
     2600.0  0.9979506  0.9977000
     2610.0  0.9980135  0.9978000
     2620.0  0.9980723  0.9979000
     2630.0  0.9981288  0.9980000
     2640.0  0.9981839  0.9982000
     2650.0  0.9982405  0.9982000
     2660.0  0.9982963  0.9982000
     2670.0  0.9983472  0.9982000
     2680.0  0.9983944  0.9983000
     2690.0  0.9984423  0.9983000
     2700.0  0.9984851  0.9983000
     2710.0  0.9985293  0.9983000
     2720.0  0.9985739  0.9986000
     2730.0  0.9986190  0.9986000
     2740.0  0.9986574  0.9986000
     2750.0  0.9986946  0.9987000
     2760.0  0.9987322  0.9987000
     2770.0  0.9987682  0.9989000
     2780.0  0.9988037  0.9989000
     2790.0  0.9988420  0.9992000
     2800.0  0.9988785  0.9993000
     2810.0  0.9989124  0.9993000
     2820.0  0.9989451  0.9995000
     2830.0  0.9989767  0.9995000
     2840.0  0.9990089  0.9995000
     2850.0  0.9990409  0.9995000
     2860.0  0.9990703  0.9995000
     2870.0  0.9990981  0.9995000
     2880.0  0.9991254  0.9995000
     2890.0  0.9991516  0.9995000
     2900.0  0.9991757  0.9995000
     2910.0  0.9992004  0.9995000
     2920.0  0.9992257  0.9995000
     2930.0  0.9992492  0.9995000
     2940.0  0.9992702  0.9995000
     2950.0  0.9992911  0.9995000
     2960.0  0.9993118  0.9995000
     2970.0  0.9993327  0.9995000
     2980.0  0.9993533  0.9995000
     2990.0  0.9993739  0.9995000
     3000.0  0.9993935  0.9995000
     3010.0  0.9994120  0.9995000
     3020.0  0.9994294  0.9995000
     3030.0  0.9994470  0.9995000
     3040.0  0.9994649  0.9995000
     3050.0  0.9994821  0.9996000
     3060.0  0.9994980  0.9996000
     3070.0  0.9995132  0.9997000
     3080.0  0.9995281  0.9997000
     3090.0  0.9995419  0.9997000
     3100.0  0.9995557  0.9997000
     3110.0  0.9995696  0.9997000
     3120.0  0.9995832  0.9997000
     3130.0  0.9995955  0.9997000
     3140.0  0.9996072  0.9997000
     3150.0  0.9996190  0.9997000
     3160.0  0.9996305  0.9997000
     3170.0  0.9996417  0.9997000
     3180.0  0.9996531  0.9997000
     3190.0  0.9996643  0.9998000
     3200.0  0.9996747  0.9998000
     3210.0  0.9996846  0.9998000
     3220.0  0.9996943  0.9998000
     3230.0  0.9997043  0.9998000
     3240.0  0.9997140  0.9999000
     3250.0  0.9997230  0.9999000
     3260.0  0.9997316  0.9999000
     3270.0  0.9997399  1.0000000

....................................................
          2023/03/24   07:10:04.329   (Local Time)
          year/mm/dd   hr:mi:second
                 CPU :        8.173 s (  0.002 hr)
....................................................

RESULTS FOR 1.E+04 TRIALS
****Shifted Thermal (at Tvib)****
     Tvib   =  300.0 K
     Ttrans = 2000.0 K
     Press  =  1.000E+02 Torr
          N =  4.828E+17 /cm3
Coll. Freq. =  2.419E+08 /s at E = 24290.5 cm-1
Initial Molecule: C2H3F3____
E(shift) =       0.0 cm-1
Starting random number seed = 1816748678
Ending   random number seed = 1163469349


CUMULATIVE DISTRIBUTION FXNS FOR STARTING ENERGIES (Pstart)

    ENERGY   P(calc)    P(actual) 
        0.0  0.0714210  0.0735000
       10.0  0.1085537  0.1089000
       20.0  0.1439476  0.1439000
       30.0  0.1664386  0.1659000
       40.0  0.1878764  0.1895000
       50.0  0.2083103  0.2093000
       60.0  0.2180488  0.2192000
       70.0  0.2273313  0.2287000
       80.0  0.2450269  0.2472000
       90.0  0.2534604  0.2550000
      100.0  0.2614990  0.2628000
      110.0  0.2691612  0.2701000
      120.0  0.2764645  0.2784000
      130.0  0.2834259  0.2860000
      140.0  0.2900613  0.2925000
      150.0  0.2963859  0.2983000
      160.0  0.3024144  0.3030000
      170.0  0.3081606  0.3094000
      180.0  0.3136378  0.3150000
      190.0  0.3188584  0.3203000
      200.0  0.3238346  0.3259000
      210.0  0.3238346  0.3259000
      220.0  0.3283556  0.3299000
      230.0  0.3563663  0.3588000
      240.0  0.3727965  0.3757000
      250.0  0.3845420  0.3876000
      260.0  0.3957376  0.4007000
      270.0  0.4064089  0.4125000
      280.0  0.4131900  0.4195000
      290.0  0.4196535  0.4258000
      300.0  0.4258144  0.4316000
      310.0  0.4316867  0.4369000
      320.0  0.4372841  0.4438000
      330.0  0.4426194  0.4496000
      340.0  0.4451621  0.4530000
      350.0  0.4500094  0.4584000
      360.0  0.4546297  0.4620000
      370.0  0.4568317  0.4641000
      380.0  0.4610294  0.4688000
      390.0  0.4850364  0.4921000
      400.0  0.5002915  0.5070000
      410.0  0.5130148  0.5193000
      420.0  0.5234097  0.5307000
      430.0  0.5333179  0.5416000
      440.0  0.5396140  0.5487000
      450.0  0.5538671  0.5635000
      460.0  0.5624475  0.5713000
      470.0  0.5747154  0.5843000
      480.0  0.5799125  0.5892000
      490.0  0.5873431  0.5958000
      500.0  0.5932453  0.6018000
      510.0  0.5977459  0.6064000
      520.0  0.6020358  0.6097000
      530.0  0.6081693  0.6158000
      540.0  0.6110925  0.6176000
      550.0  0.6157363  0.6225000
      560.0  0.6192773  0.6259000
      570.0  0.6226526  0.6291000
      580.0  0.6347170  0.6395000
      590.0  0.6431500  0.6476000
      600.0  0.6482651  0.6519000
      610.0  0.6545338  0.6582000
      620.0  0.6664839  0.6700000
      630.0  0.6759761  0.6798000
      640.0  0.6814047  0.6859000
      650.0  0.6934783  0.6989000
      660.0  0.7033425  0.7093000
      670.0  0.7101330  0.7154000
      680.0  0.7166056  0.7218000
      690.0  0.7218259  0.7277000
      700.0  0.7272541  0.7317000
      710.0  0.7311346  0.7362000
      720.0  0.7356554  0.7413000
      730.0  0.7387892  0.7449000
      740.0  0.7425231  0.7486000
      750.0  0.7460822  0.7512000
      760.0  0.7484568  0.7534000
      770.0  0.7516904  0.7572000
      780.0  0.7592415  0.7653000
      790.0  0.7636482  0.7704000
      800.0  0.7686886  0.7749000
      810.0  0.7756282  0.7816000
      820.0  0.7812252  0.7853000
      830.0  0.7861964  0.7903000
      840.0  0.7933618  0.7981000
      850.0  0.7984291  0.8018000
      860.0  0.8032591  0.8073000
      870.0  0.8066620  0.8111000
      880.0  0.8115272  0.8161000
      890.0  0.8151644  0.8195000
      900.0  0.8181112  0.8226000
      910.0  0.8219940  0.8263000
      920.0  0.8256163  0.8292000
      930.0  0.8280181  0.8314000
      940.0  0.8308798  0.8337000
      950.0  0.8331983  0.8354000
      960.0  0.8354083  0.8372000
      970.0  0.8403234  0.8440000
      980.0  0.8444572  0.8484000
      990.0  0.8469339  0.8510000
     1000.0  0.8503856  0.8546000
     1010.0  0.8545621  0.8579000
     1020.0  0.8577143  0.8616000
     1030.0  0.8612764  0.8646000
     1040.0  0.8658233  0.8693000
     1050.0  0.8701291  0.8737000
     1060.0  0.8730127  0.8758000
     1070.0  0.8760809  0.8789000
     1080.0  0.8785180  0.8809000
     1090.0  0.8814217  0.8836000
     1100.0  0.8840234  0.8856000
     1110.0  0.8866616  0.8871000
     1120.0  0.8884922  0.8886000
     1130.0  0.8907357  0.8909000
     1140.0  0.8930477  0.8936000
     1150.0  0.8947376  0.8957000
     1160.0  0.8966887  0.8975000
     1170.0  0.9000442  0.9009000
     1180.0  0.9021714  0.9025000
     1190.0  0.9043715  0.9048000
     1200.0  0.9070855  0.9073000
     1210.0  0.9094502  0.9103000
     1220.0  0.9114427  0.9126000
     1230.0  0.9147366  0.9159000
     1240.0  0.9172370  0.9187000
     1250.0  0.9193400  0.9205000
     1260.0  0.9212211  0.9226000
     1270.0  0.9232199  0.9248000
     1280.0  0.9249102  0.9267000
     1290.0  0.9263746  0.9285000
     1300.0  0.9282116  0.9299000
     1310.0  0.9297968  0.9315000
     1320.0  0.9313308  0.9331000
     1330.0  0.9328225  0.9342000
     1340.0  0.9339501  0.9353000
     1350.0  0.9351050  0.9374000
     1360.0  0.9369344  0.9399000
     1370.0  0.9385296  0.9418000
     1380.0  0.9396454  0.9427000
     1390.0  0.9410533  0.9441000
     1400.0  0.9427604  0.9464000
     1410.0  0.9442774  0.9476000
     1420.0  0.9459047  0.9489000
     1430.0  0.9476309  0.9503000
     1440.0  0.9491700  0.9518000
     1450.0  0.9503850  0.9525000
     1460.0  0.9517322  0.9535000
     1470.0  0.9527722  0.9540000
     1480.0  0.9539514  0.9549000
     1490.0  0.9552136  0.9558000
     1500.0  0.9563191  0.9572000
     1510.0  0.9571745  0.9581000
     1520.0  0.9581922  0.9593000
     1530.0  0.9591551  0.9599000
     1540.0  0.9600006  0.9611000
     1550.0  0.9608755  0.9615000
     1560.0  0.9621910  0.9629000
     1570.0  0.9630394  0.9636000
     1580.0  0.9639388  0.9647000
     1590.0  0.9649144  0.9655000
     1600.0  0.9657850  0.9665000
     1610.0  0.9665466  0.9671000
     1620.0  0.9676895  0.9679000
     1630.0  0.9686831  0.9688000
     1640.0  0.9695470  0.9696000
     1650.0  0.9703539  0.9699000
     1660.0  0.9711283  0.9713000
     1670.0  0.9718880  0.9722000
     1680.0  0.9726038  0.9727000
     1690.0  0.9733195  0.9732000
     1700.0  0.9739662  0.9739000
     1710.0  0.9746117  0.9748000
     1720.0  0.9752728  0.9754000
     1730.0  0.9757616  0.9758000
     1740.0  0.9763365  0.9762000
     1750.0  0.9770825  0.9768000
     1760.0  0.9777151  0.9772000
     1770.0  0.9781872  0.9778000
     1780.0  0.9787369  0.9785000
     1790.0  0.9793559  0.9792000
     1800.0  0.9798951  0.9801000
     1810.0  0.9804968  0.9807000
     1820.0  0.9811345  0.9809000
     1830.0  0.9816899  0.9820000
     1840.0  0.9821690  0.9826000
     1850.0  0.9826478  0.9830000
     1860.0  0.9830880  0.9834000
     1870.0  0.9835368  0.9837000
     1880.0  0.9840193  0.9842000
     1890.0  0.9844426  0.9848000
     1900.0  0.9848240  0.9851000
     1910.0  0.9852257  0.9853000
     1920.0  0.9855942  0.9856000
     1930.0  0.9859262  0.9860000
     1940.0  0.9862855  0.9863000
     1950.0  0.9867077  0.9871000
     1960.0  0.9870235  0.9875000
     1970.0  0.9873534  0.9883000
     1980.0  0.9877122  0.9884000
     1990.0  0.9880352  0.9889000
     2000.0  0.9883464  0.9890000
     2010.0  0.9887358  0.9895000
     2020.0  0.9890760  0.9901000
     2030.0  0.9893773  0.9906000
     2040.0  0.9896791  0.9910000
     2050.0  0.9899569  0.9912000
     2060.0  0.9902490  0.9915000
     2070.0  0.9905283  0.9917000
     2080.0  0.9907971  0.9918000
     2090.0  0.9910466  0.9923000
     2100.0  0.9912883  0.9925000
     2110.0  0.9915262  0.9928000
     2120.0  0.9917245  0.9928000
     2130.0  0.9919366  0.9931000
     2140.0  0.9921989  0.9932000
     2150.0  0.9924171  0.9935000
     2160.0  0.9925953  0.9937000
     2170.0  0.9927907  0.9939000
     2180.0  0.9929910  0.9939000
     2190.0  0.9931764  0.9940000
     2200.0  0.9933817  0.9941000
     2210.0  0.9935977  0.9942000
     2220.0  0.9937919  0.9942000
     2230.0  0.9939693  0.9942000
     2240.0  0.9941412  0.9942000
     2250.0  0.9943028  0.9942000
     2260.0  0.9944700  0.9943000
     2270.0  0.9946359  0.9945000
     2280.0  0.9947899  0.9946000
     2290.0  0.9949317  0.9947000
     2300.0  0.9950762  0.9949000
     2310.0  0.9952061  0.9950000
     2320.0  0.9953388  0.9950000
     2330.0  0.9954728  0.9951000
     2340.0  0.9956125  0.9952000
     2350.0  0.9957256  0.9953000
     2360.0  0.9958395  0.9954000
     2370.0  0.9959592  0.9954000
     2380.0  0.9960669  0.9956000
     2390.0  0.9961769  0.9957000
     2400.0  0.9963011  0.9958000
     2410.0  0.9964159  0.9959000
     2420.0  0.9965178  0.9959000
     2430.0  0.9966199  0.9960000
     2440.0  0.9967170  0.9962000
     2450.0  0.9968143  0.9963000
     2460.0  0.9969130  0.9963000
     2470.0  0.9970050  0.9964000
     2480.0  0.9970899  0.9965000
     2490.0  0.9971746  0.9967000
     2500.0  0.9972556  0.9968000
     2510.0  0.9973279  0.9970000
     2520.0  0.9974023  0.9970000
     2530.0  0.9974836  0.9972000
     2540.0  0.9975571  0.9974000
     2550.0  0.9976213  0.9975000
     2560.0  0.9976863  0.9975000
     2570.0  0.9977518  0.9975000
     2580.0  0.9978165  0.9975000
     2590.0  0.9978841  0.9976000
     2600.0  0.9979506  0.9976000
     2610.0  0.9980135  0.9977000
     2620.0  0.9980723  0.9978000
     2630.0  0.9981288  0.9980000
     2640.0  0.9981839  0.9982000
     2650.0  0.9982405  0.9982000
     2660.0  0.9982963  0.9982000
     2670.0  0.9983472  0.9983000
     2680.0  0.9983944  0.9984000
     2690.0  0.9984423  0.9984000
     2700.0  0.9984851  0.9985000
     2710.0  0.9985293  0.9986000
     2720.0  0.9985739  0.9986000
     2730.0  0.9986190  0.9986000
     2740.0  0.9986574  0.9988000
     2750.0  0.9986946  0.9988000
     2760.0  0.9987322  0.9988000
     2770.0  0.9987682  0.9988000
     2780.0  0.9988037  0.9988000
     2790.0  0.9988420  0.9989000
     2800.0  0.9988785  0.9989000
     2810.0  0.9989124  0.9989000
     2820.0  0.9989451  0.9989000
     2830.0  0.9989767  0.9989000
     2840.0  0.9990089  0.9991000
     2850.0  0.9990409  0.9991000
     2860.0  0.9990703  0.9991000
     2870.0  0.9990981  0.9992000
     2880.0  0.9991254  0.9992000
     2890.0  0.9991516  0.9992000
     2900.0  0.9991757  0.9993000
     2910.0  0.9992004  0.9993000
     2920.0  0.9992257  0.9994000
     2930.0  0.9992492  0.9994000
     2940.0  0.9992702  0.9994000
     2950.0  0.9992911  0.9994000
     2960.0  0.9993118  0.9994000
     2970.0  0.9993327  0.9994000
     2980.0  0.9993533  0.9995000
     2990.0  0.9993739  0.9995000
     3000.0  0.9993935  0.9995000
     3010.0  0.9994120  0.9995000
     3020.0  0.9994294  0.9995000
     3030.0  0.9994470  0.9995000
     3040.0  0.9994649  0.9996000
     3050.0  0.9994821  0.9996000
     3060.0  0.9994980  0.9996000
     3070.0  0.9995132  0.9996000
     3080.0  0.9995281  0.9996000
     3090.0  0.9995419  0.9996000
     3100.0  0.9995557  0.9996000
     3110.0  0.9995696  0.9996000
     3120.0  0.9995832  0.9996000
     3130.0  0.9995955  0.9997000
     3140.0  0.9996072  0.9997000
     3150.0  0.9996190  0.9998000
     3160.0  0.9996305  0.9998000
     3170.0  0.9996417  0.9998000
     3180.0  0.9996531  0.9998000
     3190.0  0.9996643  0.9998000
     3200.0  0.9996747  0.9998000
     3210.0  0.9996846  0.9998000
     3220.0  0.9996943  0.9998000
     3230.0  0.9997043  0.9998000
     3240.0  0.9997140  0.9998000
     3250.0  0.9997230  0.9998000
     3260.0  0.9997316  0.9998000
     3270.0  0.9997399  0.9998000
     3280.0  0.9997478  0.9998000
     3290.0  0.9997554  0.9998000
     3300.0  0.9997631  0.9998000
     3310.0  0.9997708  0.9998000
     3320.0  0.9997779  0.9998000
     3330.0  0.9997845  0.9998000
     3340.0  0.9997909  0.9998000
     3350.0  0.9997972  0.9998000
     3360.0  0.9998035  0.9999000
     3370.0  0.9998097  0.9999000
     3380.0  0.9998159  0.9999000
     3390.0  0.9998218  0.9999000
     3400.0  0.9998274  0.9999000
     3410.0  0.9998327  0.9999000
     3420.0  0.9998380  0.9999000
     3430.0  0.9998434  0.9999000
     3440.0  0.9998484  0.9999000
     3450.0  0.9998533  0.9999000
     3460.0  0.9998578  0.9999000
     3470.0  0.9998623  0.9999000
     3480.0  0.9998665  0.9999000
     3490.0  0.9998707  0.9999000
     3500.0  0.9998749  0.9999000
     3510.0  0.9998789  0.9999000
     3520.0  0.9998827  0.9999000
     3530.0  0.9998862  1.0000000
