**************INPUT DATA SUMMARY**************
%%%%%%%%%%%%%%%%%%%%%%%%%%%%%%%%%%%%%%%%%%%%%%%%%%%%%%%%%%%%%%%%%%%%%%%%%%%%%%

                      aDenSum-2011   

                         Jan 2011

              John R. Barker and Thanh Lam Nguyen
          jrbarker@umich.edu     nguyenlt@umich.edu

                   University of Michigan
               Ann Arbor, Michigan 48109-2143

           http://aoss.engin.umich.edu/multiwell

%%%%%%%%%%%%%%%%%%%%%%%%%%%%%%%%%%%%%%%%%%%%%%%%%%%%%%%%%%%%%%%%%%%%%%%%%%%%%%


Suggested Literature Citation:

    a) MultiWell-2011   Software, Jan 2011, designed and
       maintained by J.R. Barker with contributors N.F. Ortiz,
       J.M. Preses, L.L. Lohr, A. Maranzana, P.J. Stimac, T. L.
       Nguyen, and T. J. Dhilip Kumar, University of Michigan,
       Ann Arbor, MI; http://aoss.engin.umich.edu/multiwell/

    b) F. Wang and D.P. Landau, Phys. Rev. Letters 86, 
       2050-2053 (2001).

    c) M. Basire, P. Parneix, and F. Calvo, J. Chem.Phys. 129,
       081101 (2008).

    d) T.L. Nguyen and J.R. Barker, J. Phys. Chem. A., 114,
       3718-3730 (2010).

%%%%%%%%%%%%%%%%%%%%%%%%%%%%%%%%%%%%%%%%%%%%%%%%%%%%%%%%%%%%%%%%%%%%%%%%%%%%%%


H2O       
H2O from Exptl. data from Benedict et al., J. Chem. Phys. 1956, 24, 1139-1165                       
X-matrix, only                                                                                      

....................................................
          2010/12/20   15:46:52.661   (Local Time)
          year/mm/dd   hr:mi:second
                 CPU :        0.005 s (  0.000 hr)
....................................................
  3 Vibrational Frequencies (cm-1)  
  We; E = We*(v+1/2) +...; Wo: E = W0*v +...;  0<->1 fund.  
  De: BDE for Separable Morse oscillator [0.0 if non-Morse]

  No.     We         Wo      0-1_Fund.   De(cm-1)
    1   3813.085   3679.630   3637.050    79495.5
    2   1646.495   1611.560   1594.750    38624.7
    3   3944.140   3803.500   3755.930    76028.0
Anharmonicity Matrix (cm-1)
         1         2         3
  1   -42.580   -15.930  -165.820
  2   -15.930   -16.810   -20.320
  3  -165.820   -20.320   -47.570


 SEPARABLE DEGREES OF FREEDOM

  4  Classical Rotor:  I(Amu.A**2) =    0.605 ;  Sym. = 1 ;  Dim. =  1 ;  B(cm-1) =   27.885
  5  Quantized Rotor:  I(Amu.A**2) =    1.453 ;  Sym. = 1 ;  Dim. =  2 ;  B(cm-1) =   11.605

 --- END INPUT ---

  CALCULATED USING chekpoint FILE

**************INPUT DATA SUMMARY**************
 H2O
 H2O from Exptl. data from Benedict et al., J. Chem. Phys. 1956, 24, 1139-1165                       
       10.0       3000    50000.0       4000     1646.5
       No.     (cm-1)   Density   Sum
         1        0.0  7.720E-44  7.720E-43
         2       10.0  1.198E-01  1.198E+00
         3       20.0  4.961E-02  1.694E+00
         4       30.0  3.974E-01  5.668E+00
         5       40.0  1.809E-01  7.477E+00
         6       50.0  1.425E-01  8.902E+00
         7       60.0  1.218E-01  1.012E+01
         8       70.0  1.083E-01  1.120E+01
         9       80.0  6.974E-01  1.818E+01
        10       90.0  3.391E-01  2.157E+01
        11      100.0  2.754E-01  2.432E+01
        12      110.0  2.406E-01  2.673E+01
        13      120.0  2.173E-01  2.890E+01
        14      130.0  2.002E-01  3.090E+01
        15      140.0  1.868E-01  3.277E+01
        16      150.0  1.014E+00  4.292E+01
        17      160.0  5.141E-01  4.806E+01
        18      170.0  4.256E-01  5.231E+01
        19      180.0  3.770E-01  5.608E+01
        20      190.0  3.444E-01  5.953E+01
        21      200.0  3.201E-01  6.273E+01
        22      210.0  3.011E-01  6.574E+01
        23      220.0  2.854E-01  6.859E+01
        24      230.0  2.722E-01  7.132E+01
        25      240.0  1.339E+00  8.470E+01
        26      250.0  6.975E-01  9.168E+01
        27      260.0  5.848E-01  9.753E+01
        28      270.0  5.232E-01  1.028E+02
        29      280.0  4.817E-01  1.076E+02
        30      290.0  4.509E-01  1.121E+02
        31      300.0  4.265E-01  1.163E+02
        32      310.0  4.064E-01  1.204E+02
        33      320.0  3.894E-01  1.243E+02
        34      330.0  3.747E-01  1.281E+02
        35      340.0  3.618E-01  1.317E+02
        36      350.0  3.504E-01  1.352E+02
        37      360.0  1.658E+00  1.518E+02
        38      370.0  8.764E-01  1.605E+02
        39      380.0  7.409E-01  1.679E+02
        40      390.0  6.674E-01  1.746E+02
        41      400.0  6.181E-01  1.808E+02
        42      410.0  5.816E-01  1.866E+02
        43      420.0  5.527E-01  1.921E+02
        44      430.0  5.289E-01  1.974E+02
        45      440.0  5.088E-01  2.025E+02
        46      450.0  4.914E-01  2.074E+02
        47      460.0  4.760E-01  2.122E+02
        48      470.0  4.624E-01  2.168E+02
        49      480.0  4.500E-01  2.213E+02
        50      490.0  4.388E-01  2.257E+02
        51      500.0  1.986E+00  2.455E+02
        52      510.0  1.064E+00  2.562E+02
        53      520.0  9.052E-01  2.652E+02
        54      530.0  8.194E-01  2.734E+02
        55      540.0  7.622E-01  2.810E+02
        56      550.0  7.197E-01  2.882E+02
        57      560.0  6.863E-01  2.951E+02
        58      570.0  6.588E-01  3.017E+02
        59      580.0  6.355E-01  3.081E+02
        60      590.0  6.153E-01  3.142E+02
        61      600.0  5.975E-01  3.202E+02
        62      610.0  5.817E-01  3.260E+02
        63      620.0  5.674E-01  3.317E+02
        64      630.0  5.544E-01  3.372E+02
        65      640.0  5.424E-01  3.426E+02
        66      650.0  5.314E-01  3.480E+02
        67      660.0  2.318E+00  3.711E+02
        68      670.0  1.256E+00  3.837E+02
        69      680.0  1.074E+00  3.944E+02
        70      690.0  9.756E-01  4.042E+02
        71      700.0  9.104E-01  4.133E+02
        72      710.0  8.623E-01  4.219E+02
        73      720.0  8.244E-01  4.302E+02
        74      730.0  7.932E-01  4.381E+02
        75      740.0  7.668E-01  4.458E+02
        76      750.0  7.440E-01  4.532E+02
        77      760.0  7.239E-01  4.604E+02
        78      770.0  7.060E-01  4.675E+02
        79      780.0  6.898E-01  4.744E+02
        80      790.0  6.750E-01  4.811E+02
        81      800.0  6.614E-01  4.878E+02
        82      810.0  6.489E-01  4.942E+02
        83      820.0  6.373E-01  5.006E+02
        84      830.0  6.264E-01  5.069E+02
        85      840.0  6.163E-01  5.130E+02
        86      850.0  2.643E+00  5.395E+02
        87      860.0  1.441E+00  5.539E+02
        88      870.0  1.236E+00  5.662E+02
        89      880.0  1.127E+00  5.775E+02
        90      890.0  1.054E+00  5.880E+02
        91      900.0  1.000E+00  5.981E+02
        92      910.0  9.585E-01  6.076E+02
        93      920.0  9.241E-01  6.169E+02
        94      930.0  8.950E-01  6.258E+02
        95      940.0  8.699E-01  6.345E+02
        96      950.0  8.478E-01  6.430E+02
        97      960.0  8.281E-01  6.513E+02
        98      970.0  8.103E-01  6.594E+02
        99      980.0  7.940E-01  6.673E+02
       100      990.0  7.792E-01  6.751E+02
       101     1000.0  7.654E-01  6.828E+02
       102     1010.0  7.526E-01  6.903E+02
       103     1020.0  7.407E-01  6.977E+02
       104     1030.0  7.295E-01  7.050E+02
       105     1040.0  7.190E-01  7.122E+02
       106     1050.0  2.985E+00  7.420E+02
       107     1060.0  1.642E+00  7.585E+02
       108     1070.0  1.414E+00  7.726E+02
       109     1080.0  1.292E+00  7.855E+02
       110     1090.0  1.211E+00  7.976E+02
       111     1100.0  1.152E+00  8.091E+02
       112     1110.0  1.105E+00  8.202E+02
       113     1120.0  1.067E+00  8.309E+02
       114     1130.0  1.035E+00  8.412E+02
       115     1140.0  1.007E+00  8.513E+02
       116     1150.0  9.829E-01  8.611E+02
       117     1160.0  9.611E-01  8.707E+02
       118     1170.0  9.415E-01  8.801E+02
       119     1180.0  9.236E-01  8.894E+02
       120     1190.0  9.071E-01  8.985E+02
       121     1200.0  8.919E-01  9.074E+02
       122     1210.0  8.778E-01  9.162E+02
       123     1220.0  8.646E-01  9.248E+02
       124     1230.0  8.522E-01  9.333E+02
       125     1240.0  8.406E-01  9.417E+02
       126     1250.0  8.296E-01  9.500E+02
       127     1260.0  8.191E-01  9.582E+02
       128     1270.0  8.092E-01  9.663E+02
       129     1280.0  7.998E-01  9.743E+02
       130     1290.0  3.306E+00  1.007E+03
       131     1300.0  1.824E+00  1.026E+03
       132     1310.0  1.573E+00  1.041E+03
       133     1320.0  1.440E+00  1.056E+03
       134     1330.0  1.352E+00  1.069E+03
       135     1340.0  1.288E+00  1.082E+03
       136     1350.0  1.237E+00  1.095E+03
       137     1360.0  1.196E+00  1.106E+03
       138     1370.0  1.162E+00  1.118E+03
       139     1380.0  1.132E+00  1.129E+03
       140     1390.0  1.106E+00  1.140E+03
       141     1400.0  1.083E+00  1.151E+03
       142     1410.0  1.062E+00  1.162E+03
       143     1420.0  1.043E+00  1.172E+03
       144     1430.0  1.025E+00  1.183E+03
       145     1440.0  1.009E+00  1.193E+03
       146     1450.0  9.938E-01  1.203E+03
       147     1460.0  9.798E-01  1.212E+03
       148     1470.0  9.666E-01  1.222E+03
       149     1480.0  9.542E-01  1.232E+03
       150     1490.0  9.425E-01  1.241E+03
       151     1500.0  9.314E-01  1.250E+03
       152     1510.0  9.208E-01  1.260E+03
       153     1520.0  9.107E-01  1.269E+03
       154     1530.0  9.011E-01  1.278E+03
       155     1540.0  3.647E+00  1.314E+03
       156     1550.0  2.024E+00  1.334E+03
       157     1560.0  1.750E+00  1.352E+03
       158     1570.0  1.605E+00  1.368E+03
       159     1580.0  1.509E+00  1.383E+03
       160     1590.0  1.444E+00  1.397E+03
       161     1600.0  1.389E+00  1.411E+03
       162     1610.0  1.359E+00  1.425E+03
       163     1620.0  1.321E+00  1.438E+03
       164     1630.0  1.289E+00  1.451E+03
       165     1640.0  1.260E+00  1.464E+03
       166     1650.0  1.235E+00  1.476E+03
       167     1660.0  1.236E+00  1.488E+03
       168     1670.0  1.215E+00  1.501E+03
       169     1680.0  1.196E+00  1.512E+03
       170     1690.0  1.179E+00  1.524E+03
       171     1700.0  1.162E+00  1.536E+03
       172     1710.0  1.147E+00  1.547E+03
       173     1720.0  1.133E+00  1.559E+03
       174     1730.0  1.152E+00  1.570E+03
       175     1740.0  1.139E+00  1.582E+03
       176     1750.0  1.127E+00  1.593E+03
       177     1760.0  1.115E+00  1.604E+03
       178     1770.0  1.104E+00  1.615E+03
       179     1780.0  1.094E+00  1.626E+03
       180     1790.0  1.083E+00  1.637E+03
       181     1800.0  1.074E+00  1.648E+03
       182     1810.0  1.064E+00  1.658E+03
       183     1820.0  4.092E+00  1.699E+03
       184     1830.0  2.329E+00  1.722E+03
       185     1840.0  2.032E+00  1.743E+03
       186     1850.0  1.874E+00  1.761E+03
       187     1860.0  1.771E+00  1.779E+03
       188     1870.0  1.695E+00  1.796E+03
       189     1880.0  1.637E+00  1.813E+03
       190     1890.0  1.589E+00  1.828E+03
       191     1900.0  1.548E+00  1.844E+03
       192     1910.0  1.513E+00  1.859E+03
       193     1920.0  1.483E+00  1.874E+03
       194     1930.0  1.456E+00  1.888E+03
       195     1940.0  1.483E+00  1.903E+03
       196     1950.0  1.461E+00  1.918E+03
       197     1960.0  1.440E+00  1.932E+03
       198     1970.0  1.421E+00  1.946E+03
       199     1980.0  1.404E+00  1.960E+03
       200     1990.0  1.387E+00  1.974E+03
       201     2000.0  1.372E+00  1.988E+03
       202     2010.0  1.357E+00  2.002E+03
       203     2020.0  1.343E+00  2.015E+03
       204     2030.0  1.330E+00  2.028E+03
       205     2040.0  1.318E+00  2.042E+03
       206     2050.0  1.306E+00  2.055E+03
       207     2060.0  1.294E+00  2.068E+03
       208     2070.0  1.283E+00  2.080E+03
       209     2080.0  1.334E+00  2.094E+03
       210     2090.0  1.324E+00  2.107E+03
       211     2100.0  1.314E+00  2.120E+03
       212     2110.0  1.304E+00  2.133E+03
       213     2120.0  4.529E+00  2.178E+03
       214     2130.0  2.625E+00  2.205E+03
       215     2140.0  2.305E+00  2.228E+03
       216     2150.0  2.135E+00  2.249E+03
       217     2160.0  2.024E+00  2.269E+03
       218     2170.0  1.943E+00  2.289E+03
       219     2180.0  1.879E+00  2.308E+03
       220     2190.0  1.828E+00  2.326E+03
       221     2200.0  1.785E+00  2.344E+03
       222     2210.0  1.748E+00  2.361E+03
       223     2220.0  1.715E+00  2.378E+03
       224     2230.0  1.686E+00  2.395E+03
       225     2240.0  1.730E+00  2.412E+03
       226     2250.0  1.706E+00  2.430E+03
       227     2260.0  1.684E+00  2.446E+03
       228     2270.0  1.664E+00  2.463E+03
       229     2280.0  1.645E+00  2.479E+03
       230     2290.0  1.627E+00  2.496E+03
       231     2300.0  1.610E+00  2.512E+03
       232     2310.0  1.595E+00  2.528E+03
       233     2320.0  1.580E+00  2.544E+03
       234     2330.0  1.566E+00  2.559E+03
       235     2340.0  1.552E+00  2.575E+03
       236     2350.0  1.539E+00  2.590E+03
       237     2360.0  1.527E+00  2.605E+03
       238     2370.0  1.515E+00  2.621E+03
       239     2380.0  1.504E+00  2.636E+03
       240     2390.0  1.493E+00  2.651E+03
       241     2400.0  1.482E+00  2.665E+03
       242     2410.0  1.472E+00  2.680E+03
       243     2420.0  1.462E+00  2.695E+03
       244     2430.0  1.533E+00  2.710E+03
       245     2440.0  1.523E+00  2.725E+03
       246     2450.0  4.987E+00  2.775E+03
       247     2460.0  2.944E+00  2.805E+03
       248     2470.0  2.600E+00  2.831E+03
       249     2480.0  2.419E+00  2.855E+03
       250     2490.0  2.300E+00  2.878E+03
       251     2500.0  2.213E+00  2.900E+03
       252     2510.0  2.146E+00  2.921E+03
       253     2520.0  2.091E+00  2.942E+03
       254     2530.0  2.045E+00  2.963E+03
       255     2540.0  2.005E+00  2.983E+03
       256     2550.0  1.970E+00  3.002E+03
       257     2560.0  1.939E+00  3.022E+03
       258     2570.0  1.912E+00  3.041E+03
       259     2580.0  1.886E+00  3.060E+03
       260     2590.0  1.863E+00  3.078E+03
       261     2600.0  1.842E+00  3.097E+03
       262     2610.0  1.822E+00  3.115E+03
       263     2620.0  1.803E+00  3.133E+03
       264     2630.0  1.875E+00  3.152E+03
       265     2640.0  1.858E+00  3.170E+03
       266     2650.0  1.842E+00  3.189E+03
       267     2660.0  1.827E+00  3.207E+03
       268     2670.0  1.813E+00  3.225E+03
       269     2680.0  1.799E+00  3.243E+03
       270     2690.0  1.786E+00  3.261E+03
       271     2700.0  1.773E+00  3.279E+03
       272     2710.0  1.761E+00  3.296E+03
       273     2720.0  1.749E+00  3.314E+03
       274     2730.0  1.738E+00  3.331E+03
       275     2740.0  1.727E+00  3.349E+03
       276     2750.0  1.717E+00  3.366E+03
       277     2760.0  1.706E+00  3.383E+03
       278     2770.0  1.696E+00  3.400E+03
       279     2780.0  1.687E+00  3.417E+03
       280     2790.0  1.677E+00  3.433E+03
       281     2800.0  5.381E+00  3.487E+03
       282     2810.0  3.197E+00  3.519E+03
       283     2820.0  2.831E+00  3.548E+03
       284     2830.0  2.637E+00  3.574E+03
       285     2840.0  2.511E+00  3.599E+03
       286     2850.0  2.418E+00  3.623E+03
       287     2860.0  2.347E+00  3.647E+03
       288     2870.0  2.387E+00  3.671E+03
       289     2880.0  2.338E+00  3.694E+03
       290     2890.0  2.296E+00  3.717E+03
       291     2900.0  2.259E+00  3.739E+03
       292     2910.0  2.226E+00  3.762E+03
       293     2920.0  2.197E+00  3.784E+03
       294     2930.0  2.170E+00  3.805E+03
       295     2940.0  2.145E+00  3.827E+03
       296     2950.0  2.122E+00  3.848E+03
       297     2960.0  2.101E+00  3.869E+03
       298     2970.0  2.081E+00  3.890E+03
       299     2980.0  2.062E+00  3.911E+03
       300     2990.0  2.045E+00  3.931E+03
       301     3000.0  2.028E+00  3.951E+03
       302     3010.0  2.012E+00  3.971E+03
       303     3020.0  1.997E+00  3.991E+03
       304     3030.0  1.983E+00  4.011E+03
       305     3040.0  1.969E+00  4.031E+03
       306     3050.0  1.956E+00  4.050E+03
       307     3060.0  1.943E+00  4.070E+03
       308     3070.0  1.931E+00  4.089E+03
       309     3080.0  1.919E+00  4.108E+03
       310     3090.0  1.908E+00  4.127E+03
       311     3100.0  1.896E+00  4.146E+03
       312     3110.0  1.886E+00  4.165E+03
       313     3120.0  1.983E+00  4.185E+03
       314     3130.0  1.973E+00  4.205E+03
       315     3140.0  1.963E+00  4.224E+03
       316     3150.0  1.953E+00  4.244E+03
       317     3160.0  1.947E+00  4.263E+03
       318     3170.0  5.890E+00  4.322E+03
       319     3180.0  3.576E+00  4.358E+03
       320     3190.0  3.186E+00  4.390E+03
       321     3200.0  2.980E+00  4.420E+03
       322     3210.0  2.846E+00  4.448E+03
       323     3220.0  2.748E+00  4.476E+03
       324     3230.0  2.689E+00  4.503E+03
       325     3240.0  2.628E+00  4.529E+03
       326     3250.0  2.576E+00  4.555E+03
       327     3260.0  2.531E+00  4.580E+03
       328     3270.0  2.492E+00  4.605E+03
       329     3280.0  2.458E+00  4.629E+03
       330     3290.0  2.426E+00  4.654E+03
       331     3300.0  2.423E+00  4.678E+03
       332     3310.0  2.397E+00  4.702E+03
       333     3320.0  2.373E+00  4.726E+03
       334     3330.0  2.350E+00  4.749E+03
       335     3340.0  2.329E+00  4.772E+03
       336     3350.0  2.310E+00  4.796E+03
       337     3360.0  2.291E+00  4.818E+03
       338     3370.0  2.274E+00  4.841E+03
       339     3380.0  2.257E+00  4.864E+03
       340     3390.0  2.273E+00  4.886E+03
       341     3400.0  2.375E+00  4.910E+03
       342     3410.0  2.360E+00  4.934E+03
       343     3420.0  2.346E+00  4.957E+03
       344     3430.0  2.332E+00  4.981E+03
       345     3440.0  2.319E+00  5.004E+03
       346     3450.0  2.306E+00  5.027E+03
       347     3460.0  2.294E+00  5.050E+03
       348     3470.0  2.282E+00  5.073E+03
       349     3480.0  2.270E+00  5.095E+03
       350     3490.0  2.259E+00  5.118E+03
       351     3500.0  2.248E+00  5.140E+03
       352     3510.0  2.276E+00  5.163E+03
       353     3520.0  2.265E+00  5.186E+03
       354     3530.0  2.255E+00  5.208E+03
       355     3540.0  2.245E+00  5.231E+03
       356     3550.0  2.235E+00  5.253E+03
       357     3560.0  6.418E+00  5.317E+03
       358     3570.0  3.953E+00  5.357E+03
       359     3580.0  3.540E+00  5.392E+03
       360     3590.0  3.322E+00  5.425E+03
       361     3600.0  3.179E+00  5.457E+03
       362     3610.0  3.076E+00  5.488E+03
       363     3620.0  2.995E+00  5.518E+03
       364     3630.0  2.930E+00  5.547E+03
       365     3640.0  2.878E+00  5.576E+03
       366     3650.0  2.877E+00  5.605E+03
       367     3660.0  2.844E+00  5.633E+03
       368     3670.0  2.808E+00  5.661E+03
       369     3680.0  2.775E+00  5.689E+03
       370     3690.0  2.745E+00  5.717E+03
       371     3700.0  2.844E+00  5.745E+03
       372     3710.0  2.832E+00  5.773E+03
       373     3720.0  2.808E+00  5.801E+03
       374     3730.0  2.786E+00  5.829E+03
       375     3740.0  2.765E+00  5.857E+03
       376     3750.0  2.745E+00  5.884E+03
       377     3760.0  2.729E+00  5.912E+03
       378     3770.0  2.711E+00  5.939E+03
       379     3780.0  2.722E+00  5.966E+03
       380     3790.0  2.705E+00  5.993E+03
       381     3800.0  2.689E+00  6.020E+03
       382     3810.0  2.727E+00  6.047E+03
       383     3820.0  2.713E+00  6.074E+03
       384     3830.0  2.713E+00  6.101E+03
       385     3840.0  2.700E+00  6.128E+03
       386     3850.0  2.687E+00  6.155E+03
       387     3860.0  2.674E+00  6.182E+03
       388     3870.0  2.686E+00  6.209E+03
       389     3880.0  2.674E+00  6.236E+03
       390     3890.0  2.662E+00  6.262E+03
       391     3900.0  2.671E+00  6.289E+03
       392     3910.0  2.660E+00  6.316E+03
       393     3920.0  2.649E+00  6.342E+03
       394     3930.0  2.638E+00  6.368E+03
       395     3940.0  2.628E+00  6.395E+03
       396     3950.0  2.618E+00  6.421E+03
       397     3960.0  2.608E+00  6.447E+03
       398     3970.0  2.598E+00  6.473E+03
       399     3980.0  7.020E+00  6.543E+03
       400     3990.0  4.471E+00  6.588E+03
       401     4000.0  4.095E+00  6.629E+03
       402     4010.0  3.865E+00  6.667E+03
       403     4020.0  3.714E+00  6.705E+03
       404     4030.0  3.742E+00  6.742E+03
       405     4040.0  3.656E+00  6.779E+03
       406     4050.0  3.587E+00  6.814E+03
       407     4060.0  3.529E+00  6.850E+03
       408     4070.0  3.479E+00  6.885E+03
       409     4080.0  3.436E+00  6.919E+03
       410     4090.0  3.397E+00  6.953E+03
       411     4100.0  3.362E+00  6.987E+03
       412     4110.0  3.363E+00  7.020E+03
       413     4120.0  3.333E+00  7.053E+03
       414     4130.0  3.341E+00  7.087E+03
       415     4140.0  3.316E+00  7.120E+03
       416     4150.0  3.292E+00  7.153E+03
       417     4160.0  3.270E+00  7.186E+03
       418     4170.0  3.249E+00  7.218E+03
       419     4180.0  3.229E+00  7.250E+03
       420     4190.0  3.210E+00  7.283E+03
       421     4200.0  3.259E+00  7.315E+03
       422     4210.0  3.242E+00  7.348E+03
       423     4220.0  3.225E+00  7.380E+03
       424     4230.0  3.209E+00  7.412E+03
       425     4240.0  3.194E+00  7.444E+03
       426     4250.0  3.217E+00  7.476E+03
       427     4260.0  3.203E+00  7.508E+03
       428     4270.0  3.189E+00  7.540E+03
       429     4280.0  3.175E+00  7.572E+03
       430     4290.0  3.203E+00  7.604E+03
       431     4300.0  3.190E+00  7.636E+03
       432     4310.0  3.177E+00  7.667E+03
       433     4320.0  3.165E+00  7.699E+03
       434     4330.0  3.153E+00  7.731E+03
       435     4340.0  3.142E+00  7.762E+03
       436     4350.0  3.130E+00  7.793E+03
       437     4360.0  3.119E+00  7.824E+03
       438     4370.0  3.108E+00  7.856E+03
       439     4380.0  3.243E+00  7.888E+03
       440     4390.0  3.233E+00  7.920E+03
       441     4400.0  3.222E+00  7.953E+03
       442     4410.0  3.256E+00  7.985E+03
       443     4420.0  7.917E+00  8.064E+03
       444     4430.0  5.170E+00  8.116E+03
       445     4440.0  4.784E+00  8.164E+03
       446     4450.0  4.541E+00  8.209E+03
       447     4460.0  4.383E+00  8.253E+03
       448     4470.0  4.267E+00  8.296E+03
       449     4480.0  4.224E+00  8.338E+03
       450     4490.0  4.151E+00  8.379E+03
       451     4500.0  4.090E+00  8.420E+03
       452     4510.0  4.037E+00  8.461E+03
       453     4520.0  3.991E+00  8.501E+03
       454     4530.0  3.950E+00  8.540E+03
       455     4540.0  3.914E+00  8.579E+03
       456     4550.0  3.880E+00  8.618E+03
       457     4560.0  3.849E+00  8.657E+03
       458     4570.0  3.821E+00  8.695E+03
       459     4580.0  3.794E+00  8.733E+03
       460     4590.0  3.769E+00  8.770E+03
       461     4600.0  3.797E+00  8.808E+03
       462     4610.0  3.774E+00  8.846E+03
       463     4620.0  3.753E+00  8.884E+03
       464     4630.0  3.733E+00  8.921E+03
       465     4640.0  3.714E+00  8.958E+03
       466     4650.0  3.696E+00  8.995E+03
       467     4660.0  3.679E+00  9.032E+03
       468     4670.0  3.662E+00  9.069E+03
       469     4680.0  3.700E+00  9.106E+03
       470     4690.0  3.765E+00  9.143E+03
       471     4700.0  3.758E+00  9.181E+03
       472     4710.0  3.743E+00  9.218E+03
       473     4720.0  3.729E+00  9.255E+03
       474     4730.0  3.715E+00  9.293E+03
       475     4740.0  3.701E+00  9.330E+03
       476     4750.0  3.857E+00  9.368E+03
       477     4760.0  3.844E+00  9.407E+03
       478     4770.0  3.831E+00  9.445E+03
       479     4780.0  3.818E+00  9.483E+03
       480     4790.0  3.806E+00  9.521E+03
       481     4800.0  3.850E+00  9.560E+03
       482     4810.0  3.838E+00  9.598E+03
       483     4820.0  3.846E+00  9.637E+03
       484     4830.0  3.834E+00  9.675E+03
       485     4840.0  3.823E+00  9.713E+03
       486     4850.0  3.812E+00  9.751E+03
       487     4860.0  3.801E+00  9.789E+03
       488     4870.0  3.790E+00  9.827E+03
       489     4880.0  8.690E+00  9.914E+03
       490     4890.0  5.803E+00  9.972E+03
       491     4900.0  5.319E+00  1.003E+04
       492     4910.0  5.090E+00  1.008E+04
       493     4920.0  4.980E+00  1.013E+04
       494     4930.0  4.859E+00  1.017E+04
       495     4940.0  4.765E+00  1.022E+04
       496     4950.0  4.688E+00  1.027E+04
       497     4960.0  4.624E+00  1.032E+04
       498     4970.0  4.658E+00  1.036E+04
       499     4980.0  4.609E+00  1.041E+04
       500     4990.0  4.566E+00  1.045E+04
       501     5000.0  4.527E+00  1.050E+04
       502     5010.0  4.492E+00  1.054E+04
       503     5020.0  4.460E+00  1.059E+04
       504     5030.0  4.461E+00  1.063E+04
       505     5040.0  4.496E+00  1.068E+04
       506     5050.0  4.469E+00  1.072E+04
       507     5060.0  4.445E+00  1.077E+04
       508     5070.0  4.421E+00  1.081E+04
       509     5080.0  4.399E+00  1.086E+04
       510     5090.0  4.378E+00  1.090E+04
       511     5100.0  4.358E+00  1.094E+04
       512     5110.0  4.338E+00  1.099E+04
       513     5120.0  4.320E+00  1.103E+04
       514     5130.0  4.302E+00  1.107E+04
       515     5140.0  4.449E+00  1.112E+04
       516     5150.0  4.432E+00  1.116E+04
       517     5160.0  4.416E+00  1.121E+04
       518     5170.0  4.499E+00  1.125E+04
       519     5180.0  4.483E+00  1.130E+04
       520     5190.0  4.468E+00  1.134E+04
       521     5200.0  4.453E+00  1.138E+04
       522     5210.0  4.438E+00  1.143E+04
       523     5220.0  4.427E+00  1.147E+04
       524     5230.0  4.413E+00  1.152E+04
       525     5240.0  4.407E+00  1.156E+04
       526     5250.0  4.394E+00  1.161E+04
       527     5260.0  4.381E+00  1.165E+04
       528     5270.0  4.463E+00  1.169E+04
       529     5280.0  4.451E+00  1.174E+04
       530     5290.0  4.519E+00  1.178E+04
       531     5300.0  4.507E+00  1.183E+04
       532     5310.0  4.495E+00  1.187E+04
       533     5320.0  4.483E+00  1.192E+04
       534     5330.0  4.517E+00  1.196E+04
       535     5340.0  4.506E+00  1.201E+04
       536     5350.0  4.502E+00  1.205E+04
       537     5360.0  4.509E+00  1.210E+04
       538     5370.0  9.648E+00  1.219E+04
       539     5380.0  6.620E+00  1.226E+04
       540     5390.0  6.113E+00  1.232E+04
       541     5400.0  5.858E+00  1.238E+04
       542     5410.0  5.683E+00  1.244E+04
       543     5420.0  5.557E+00  1.249E+04
       544     5430.0  5.458E+00  1.255E+04
       545     5440.0  5.378E+00  1.260E+04
       546     5450.0  5.402E+00  1.266E+04
       547     5460.0  5.344E+00  1.271E+04
       548     5470.0  5.311E+00  1.276E+04
       549     5480.0  5.266E+00  1.281E+04
       550     5490.0  5.225E+00  1.287E+04
       551     5500.0  5.188E+00  1.292E+04
       552     5510.0  5.154E+00  1.297E+04
       553     5520.0  5.171E+00  1.302E+04
       554     5530.0  5.142E+00  1.307E+04
       555     5540.0  5.115E+00  1.312E+04
       556     5550.0  5.089E+00  1.318E+04
       557     5560.0  5.261E+00  1.323E+04
       558     5570.0  5.339E+00  1.328E+04
       559     5580.0  5.317E+00  1.333E+04
       560     5590.0  5.295E+00  1.339E+04
       561     5600.0  5.376E+00  1.344E+04
       562     5610.0  5.356E+00  1.350E+04
       563     5620.0  5.337E+00  1.355E+04
       564     5630.0  5.318E+00  1.360E+04
       565     5640.0  5.300E+00  1.365E+04
       566     5650.0  5.282E+00  1.371E+04
       567     5660.0  5.265E+00  1.376E+04
       568     5670.0  5.248E+00  1.381E+04
       569     5680.0  5.259E+00  1.387E+04
       570     5690.0  5.243E+00  1.392E+04
       571     5700.0  5.228E+00  1.397E+04
       572     5710.0  5.246E+00  1.402E+04
       573     5720.0  5.286E+00  1.408E+04
       574     5730.0  5.271E+00  1.413E+04
       575     5740.0  5.257E+00  1.418E+04
       576     5750.0  5.316E+00  1.423E+04
       577     5760.0  5.302E+00  1.429E+04
       578     5770.0  5.289E+00  1.434E+04
       579     5780.0  5.276E+00  1.439E+04
       580     5790.0  5.263E+00  1.444E+04
       581     5800.0  5.250E+00  1.450E+04
       582     5810.0  5.238E+00  1.455E+04
       583     5820.0  5.258E+00  1.460E+04
       584     5830.0  5.245E+00  1.465E+04
       585     5840.0  5.233E+00  1.471E+04
       586     5850.0  5.222E+00  1.476E+04
       587     5860.0  5.210E+00  1.481E+04
       588     5870.0  5.317E+00  1.486E+04
       589     5880.0  1.070E+01  1.497E+04
       590     5890.0  7.527E+00  1.505E+04
       591     5900.0  6.996E+00  1.512E+04
       592     5910.0  6.717E+00  1.518E+04
       593     5920.0  6.534E+00  1.525E+04
       594     5930.0  6.401E+00  1.531E+04
       595     5940.0  6.298E+00  1.538E+04
       596     5950.0  6.324E+00  1.544E+04
       597     5960.0  6.314E+00  1.550E+04
       598     5970.0  6.253E+00  1.557E+04
       599     5980.0  6.237E+00  1.563E+04
       600     5990.0  6.190E+00  1.569E+04
       601     6000.0  6.331E+00  1.575E+04
       602     6010.0  6.291E+00  1.582E+04
       603     6020.0  6.255E+00  1.588E+04
       604     6030.0  6.221E+00  1.594E+04
       605     6040.0  6.190E+00  1.600E+04
       606     6050.0  6.160E+00  1.606E+04
       607     6060.0  6.176E+00  1.613E+04
       608     6070.0  6.150E+00  1.619E+04
       609     6080.0  6.203E+00  1.625E+04
       610     6090.0  6.179E+00  1.631E+04
       611     6100.0  6.156E+00  1.637E+04
       612     6110.0  6.134E+00  1.643E+04
       613     6120.0  6.113E+00  1.650E+04
       614     6130.0  6.092E+00  1.656E+04
       615     6140.0  6.073E+00  1.662E+04
       616     6150.0  6.053E+00  1.668E+04
       617     6160.0  6.035E+00  1.674E+04
       618     6170.0  6.059E+00  1.680E+04
       619     6180.0  6.044E+00  1.686E+04
       620     6190.0  6.027E+00  1.692E+04
       621     6200.0  6.104E+00  1.698E+04
       622     6210.0  6.153E+00  1.704E+04
       623     6220.0  6.137E+00  1.710E+04
       624     6230.0  6.121E+00  1.716E+04
       625     6240.0  6.106E+00  1.723E+04
       626     6250.0  6.103E+00  1.729E+04
       627     6260.0  6.137E+00  1.735E+04
       628     6270.0  6.122E+00  1.741E+04
       629     6280.0  6.108E+00  1.747E+04
       630     6290.0  6.094E+00  1.753E+04
       631     6300.0  6.080E+00  1.759E+04
       632     6310.0  6.067E+00  1.765E+04
       633     6320.0  6.187E+00  1.771E+04
       634     6330.0  6.173E+00  1.778E+04
       635     6340.0  6.160E+00  1.784E+04
       636     6350.0  6.147E+00  1.790E+04
       637     6360.0  6.135E+00  1.796E+04
       638     6370.0  6.170E+00  1.802E+04
       639     6380.0  6.157E+00  1.808E+04
       640     6390.0  6.145E+00  1.814E+04
       641     6400.0  6.133E+00  1.821E+04
       642     6410.0  6.142E+00  1.827E+04
       643     6420.0  1.176E+01  1.839E+04
       644     6430.0  8.534E+00  1.847E+04
       645     6440.0  7.980E+00  1.855E+04
       646     6450.0  7.688E+00  1.863E+04
       647     6460.0  7.690E+00  1.870E+04
       648     6470.0  7.551E+00  1.878E+04
       649     6480.0  7.442E+00  1.885E+04
       650     6490.0  7.426E+00  1.893E+04
       651     6500.0  7.405E+00  1.900E+04
       652     6510.0  7.341E+00  1.908E+04
       653     6520.0  7.286E+00  1.915E+04
       654     6530.0  7.261E+00  1.922E+04
       655     6540.0  7.216E+00  1.929E+04
       656     6550.0  7.267E+00  1.937E+04
       657     6560.0  7.229E+00  1.944E+04
       658     6570.0  7.194E+00  1.951E+04
       659     6580.0  7.161E+00  1.958E+04
       660     6590.0  7.131E+00  1.965E+04
       661     6600.0  7.101E+00  1.972E+04
       662     6610.0  7.126E+00  1.980E+04
       663     6620.0  7.100E+00  1.987E+04
       664     6630.0  7.075E+00  1.994E+04
       665     6640.0  7.051E+00  2.001E+04
       666     6650.0  7.028E+00  2.008E+04
       667     6660.0  7.006E+00  2.015E+04
       668     6670.0  7.015E+00  2.022E+04
       669     6680.0  6.994E+00  2.029E+04
       670     6690.0  6.974E+00  2.036E+04
       671     6700.0  6.955E+00  2.043E+04
       672     6710.0  7.059E+00  2.050E+04
       673     6720.0  7.041E+00  2.057E+04
       674     6730.0  7.023E+00  2.064E+04
       675     6740.0  7.005E+00  2.071E+04
       676     6750.0  7.047E+00  2.078E+04
       677     6760.0  7.032E+00  2.085E+04
       678     6770.0  7.016E+00  2.092E+04
       679     6780.0  7.006E+00  2.099E+04
       680     6790.0  7.067E+00  2.106E+04
       681     6800.0  7.141E+00  2.113E+04
       682     6810.0  7.126E+00  2.120E+04
       683     6820.0  7.110E+00  2.127E+04
       684     6830.0  7.142E+00  2.135E+04
       685     6840.0  7.127E+00  2.142E+04
       686     6850.0  7.112E+00  2.149E+04
       687     6860.0  7.155E+00  2.156E+04
       688     6870.0  7.144E+00  2.163E+04
       689     6880.0  7.130E+00  2.170E+04
       690     6890.0  7.123E+00  2.177E+04
       691     6900.0  7.125E+00  2.184E+04
       692     6910.0  7.111E+00  2.192E+04
       693     6920.0  7.196E+00  2.199E+04
       694     6930.0  7.183E+00  2.206E+04
       695     6940.0  7.181E+00  2.213E+04
       696     6950.0  7.371E+00  2.221E+04
       697     6960.0  7.358E+00  2.228E+04
       698     6970.0  1.321E+01  2.241E+04
       699     6980.0  9.763E+00  2.251E+04
       700     6990.0  9.204E+00  2.260E+04
       701     7000.0  8.898E+00  2.269E+04
       702     7010.0  8.714E+00  2.278E+04
       703     7020.0  8.609E+00  2.286E+04
       704     7030.0  8.560E+00  2.295E+04
       705     7040.0  8.468E+00  2.303E+04
       706     7050.0  8.390E+00  2.312E+04
       707     7060.0  8.324E+00  2.320E+04
       708     7070.0  8.265E+00  2.328E+04
       709     7080.0  8.213E+00  2.337E+04
       710     7090.0  8.166E+00  2.345E+04
       711     7100.0  8.143E+00  2.353E+04
       712     7110.0  8.128E+00  2.361E+04
       713     7120.0  8.174E+00  2.369E+04
       714     7130.0  8.270E+00  2.377E+04
       715     7140.0  8.300E+00  2.386E+04
       716     7150.0  8.269E+00  2.394E+04
       717     7160.0  8.240E+00  2.402E+04
       718     7170.0  8.212E+00  2.410E+04
       719     7180.0  8.186E+00  2.419E+04
       720     7190.0  8.257E+00  2.427E+04
       721     7200.0  8.233E+00  2.435E+04
       722     7210.0  8.215E+00  2.443E+04
       723     7220.0  8.261E+00  2.452E+04
       724     7230.0  8.241E+00  2.460E+04
       725     7240.0  8.220E+00  2.468E+04
       726     7250.0  8.233E+00  2.476E+04
       727     7260.0  8.223E+00  2.484E+04
       728     7270.0  8.203E+00  2.493E+04
       729     7280.0  8.184E+00  2.501E+04
       730     7290.0  8.165E+00  2.509E+04
       731     7300.0  8.157E+00  2.517E+04
       732     7310.0  8.244E+00  2.525E+04
       733     7320.0  8.226E+00  2.534E+04
       734     7330.0  8.292E+00  2.542E+04
       735     7340.0  8.275E+00  2.550E+04
       736     7350.0  8.258E+00  2.558E+04
       737     7360.0  8.270E+00  2.567E+04
       738     7370.0  8.268E+00  2.575E+04
       739     7380.0  8.253E+00  2.583E+04
       740     7390.0  8.237E+00  2.592E+04
       741     7400.0  8.222E+00  2.600E+04
       742     7410.0  8.239E+00  2.608E+04
       743     7420.0  8.244E+00  2.616E+04
       744     7430.0  8.230E+00  2.624E+04
       745     7440.0  8.288E+00  2.633E+04
       746     7450.0  8.274E+00  2.641E+04
       747     7460.0  8.539E+00  2.650E+04
       748     7470.0  8.613E+00  2.658E+04
       749     7480.0  8.598E+00  2.667E+04
       750     7490.0  8.594E+00  2.675E+04
       751     7500.0  8.580E+00  2.684E+04
       752     7510.0  8.566E+00  2.692E+04
       753     7520.0  8.585E+00  2.701E+04
       754     7530.0  8.571E+00  2.710E+04
       755     7540.0  8.579E+00  2.718E+04
       756     7550.0  1.467E+01  2.733E+04
       757     7560.0  1.110E+01  2.744E+04
       758     7570.0  1.063E+01  2.755E+04
       759     7580.0  1.034E+01  2.765E+04
       760     7590.0  1.013E+01  2.775E+04
       761     7600.0  1.001E+01  2.785E+04
       762     7610.0  9.996E+00  2.795E+04
       763     7620.0  9.900E+00  2.805E+04
       764     7630.0  9.820E+00  2.815E+04
       765     7640.0  9.752E+00  2.825E+04
       766     7650.0  9.709E+00  2.834E+04
       767     7660.0  9.735E+00  2.844E+04
       768     7670.0  9.686E+00  2.854E+04
       769     7680.0  9.666E+00  2.863E+04
       770     7690.0  9.625E+00  2.873E+04
       771     7700.0  9.586E+00  2.883E+04
       772     7710.0  9.652E+00  2.892E+04
       773     7720.0  9.644E+00  2.902E+04
       774     7730.0  9.722E+00  2.912E+04
       775     7740.0  9.691E+00  2.921E+04
       776     7750.0  9.662E+00  2.931E+04
       777     7760.0  9.634E+00  2.941E+04
       778     7770.0  9.702E+00  2.950E+04
       779     7780.0  9.691E+00  2.960E+04
       780     7790.0  9.666E+00  2.970E+04
       781     7800.0  9.683E+00  2.979E+04
       782     7810.0  9.660E+00  2.989E+04
       783     7820.0  9.637E+00  2.999E+04
       784     7830.0  9.615E+00  3.008E+04
       785     7840.0  9.718E+00  3.018E+04
       786     7850.0  9.697E+00  3.028E+04
       787     7860.0  9.677E+00  3.037E+04
       788     7870.0  9.676E+00  3.047E+04
       789     7880.0  9.687E+00  3.057E+04
       790     7890.0  9.668E+00  3.066E+04
       791     7900.0  9.649E+00  3.076E+04
       792     7910.0  9.699E+00  3.086E+04
       793     7920.0  9.681E+00  3.095E+04
       794     7930.0  9.664E+00  3.105E+04
       795     7940.0  9.646E+00  3.115E+04
       796     7950.0  9.629E+00  3.124E+04
       797     7960.0  9.613E+00  3.134E+04
       798     7970.0  9.596E+00  3.144E+04
       799     7980.0  9.580E+00  3.153E+04
       800     7990.0  9.645E+00  3.163E+04
       801     8000.0  9.850E+00  3.173E+04
       802     8010.0  9.913E+00  3.183E+04
       803     8020.0  9.897E+00  3.192E+04
       804     8030.0  1.006E+01  3.202E+04
       805     8040.0  1.009E+01  3.213E+04
       806     8050.0  1.018E+01  3.223E+04
       807     8060.0  1.016E+01  3.233E+04
       808     8070.0  1.021E+01  3.243E+04
       809     8080.0  1.020E+01  3.253E+04
       810     8090.0  1.018E+01  3.264E+04
       811     8100.0  1.017E+01  3.274E+04
       812     8110.0  1.015E+01  3.284E+04
       813     8120.0  1.021E+01  3.294E+04
       814     8130.0  1.023E+01  3.304E+04
       815     8140.0  1.021E+01  3.314E+04
       816     8150.0  1.024E+01  3.325E+04
       817     8160.0  1.658E+01  3.341E+04
       818     8170.0  1.296E+01  3.354E+04
       819     8180.0  1.233E+01  3.367E+04
       820     8190.0  1.200E+01  3.379E+04
       821     8200.0  1.179E+01  3.390E+04
       822     8210.0  1.163E+01  3.402E+04
       823     8220.0  1.151E+01  3.414E+04
       824     8230.0  1.154E+01  3.425E+04
       825     8240.0  1.146E+01  3.437E+04
       826     8250.0  1.139E+01  3.448E+04
       827     8260.0  1.136E+01  3.459E+04
       828     8270.0  1.134E+01  3.471E+04
       829     8280.0  1.129E+01  3.482E+04
       830     8290.0  1.139E+01  3.493E+04
       831     8300.0  1.135E+01  3.505E+04
       832     8310.0  1.131E+01  3.516E+04
       833     8320.0  1.127E+01  3.527E+04
       834     8330.0  1.124E+01  3.538E+04
       835     8340.0  1.121E+01  3.550E+04
       836     8350.0  1.118E+01  3.561E+04
       837     8360.0  1.115E+01  3.572E+04
       838     8370.0  1.112E+01  3.583E+04
       839     8380.0  1.118E+01  3.594E+04
       840     8390.0  1.115E+01  3.605E+04
       841     8400.0  1.118E+01  3.617E+04
       842     8410.0  1.117E+01  3.628E+04
       843     8420.0  1.115E+01  3.639E+04
       844     8430.0  1.112E+01  3.650E+04
       845     8440.0  1.110E+01  3.661E+04
       846     8450.0  1.109E+01  3.672E+04
       847     8460.0  1.110E+01  3.683E+04
       848     8470.0  1.113E+01  3.695E+04
       849     8480.0  1.114E+01  3.706E+04
       850     8490.0  1.120E+01  3.717E+04
       851     8500.0  1.120E+01  3.728E+04
       852     8510.0  1.133E+01  3.739E+04
       853     8520.0  1.148E+01  3.751E+04
       854     8530.0  1.146E+01  3.762E+04
       855     8540.0  1.144E+01  3.774E+04
       856     8550.0  1.165E+01  3.785E+04
       857     8560.0  1.163E+01  3.797E+04
       858     8570.0  1.167E+01  3.809E+04
       859     8580.0  1.165E+01  3.820E+04
       860     8590.0  1.163E+01  3.832E+04
       861     8600.0  1.161E+01  3.844E+04
       862     8610.0  1.161E+01  3.855E+04
       863     8620.0  1.169E+01  3.867E+04
       864     8630.0  1.179E+01  3.879E+04
       865     8640.0  1.177E+01  3.890E+04
       866     8650.0  1.186E+01  3.902E+04
       867     8660.0  1.185E+01  3.914E+04
       868     8670.0  1.183E+01  3.926E+04
       869     8680.0  1.191E+01  3.938E+04
       870     8690.0  1.189E+01  3.950E+04
       871     8700.0  1.192E+01  3.962E+04
       872     8710.0  1.190E+01  3.974E+04
       873     8720.0  1.193E+01  3.986E+04
       874     8730.0  1.194E+01  3.997E+04
       875     8740.0  1.192E+01  4.009E+04
       876     8750.0  1.191E+01  4.021E+04
       877     8760.0  1.196E+01  4.033E+04
       878     8770.0  1.204E+01  4.045E+04
       879     8780.0  1.861E+01  4.064E+04
       880     8790.0  1.474E+01  4.079E+04
       881     8800.0  1.409E+01  4.093E+04
       882     8810.0  1.375E+01  4.107E+04
       883     8820.0  1.354E+01  4.120E+04
       884     8830.0  1.337E+01  4.133E+04
       885     8840.0  1.325E+01  4.147E+04
       886     8850.0  1.314E+01  4.160E+04
       887     8860.0  1.306E+01  4.173E+04
       888     8870.0  1.307E+01  4.186E+04
       889     8880.0  1.309E+01  4.199E+04
       890     8890.0  1.305E+01  4.212E+04
       891     8900.0  1.299E+01  4.225E+04
       892     8910.0  1.294E+01  4.238E+04
       893     8920.0  1.297E+01  4.251E+04
       894     8930.0  1.294E+01  4.264E+04
       895     8940.0  1.290E+01  4.277E+04
       896     8950.0  1.291E+01  4.290E+04
       897     8960.0  1.288E+01  4.303E+04
       898     8970.0  1.292E+01  4.316E+04
       899     8980.0  1.296E+01  4.329E+04
       900     8990.0  1.294E+01  4.341E+04
       901     9000.0  1.307E+01  4.355E+04
       902     9010.0  1.305E+01  4.368E+04
       903     9020.0  1.303E+01  4.381E+04
       904     9030.0  1.320E+01  4.394E+04
       905     9040.0  1.323E+01  4.407E+04
       906     9050.0  1.321E+01  4.420E+04
       907     9060.0  1.318E+01  4.433E+04
       908     9070.0  1.316E+01  4.447E+04
       909     9080.0  1.314E+01  4.460E+04
       910     9090.0  1.323E+01  4.473E+04
       911     9100.0  1.323E+01  4.486E+04
       912     9110.0  1.325E+01  4.499E+04
       913     9120.0  1.336E+01  4.513E+04
       914     9130.0  1.359E+01  4.526E+04
       915     9140.0  1.358E+01  4.540E+04
       916     9150.0  1.356E+01  4.554E+04
       917     9160.0  1.354E+01  4.567E+04
       918     9170.0  1.357E+01  4.581E+04
       919     9180.0  1.355E+01  4.594E+04
       920     9190.0  1.362E+01  4.608E+04
       921     9200.0  1.370E+01  4.622E+04
       922     9210.0  1.368E+01  4.635E+04
       923     9220.0  1.369E+01  4.649E+04
       924     9230.0  1.373E+01  4.663E+04
       925     9240.0  1.373E+01  4.676E+04
       926     9250.0  1.371E+01  4.690E+04
       927     9260.0  1.369E+01  4.704E+04
       928     9270.0  1.368E+01  4.717E+04
       929     9280.0  1.368E+01  4.731E+04
       930     9290.0  1.368E+01  4.745E+04
       931     9300.0  1.381E+01  4.759E+04
       932     9310.0  1.389E+01  4.772E+04
       933     9320.0  1.390E+01  4.786E+04
       934     9330.0  1.388E+01  4.800E+04
       935     9340.0  1.399E+01  4.814E+04
       936     9350.0  1.398E+01  4.828E+04
       937     9360.0  1.396E+01  4.842E+04
       938     9370.0  1.394E+01  4.856E+04
       939     9380.0  1.393E+01  4.870E+04
       940     9390.0  1.391E+01  4.884E+04
       941     9400.0  1.392E+01  4.898E+04
       942     9410.0  1.392E+01  4.912E+04
       943     9420.0  1.395E+01  4.926E+04
       944     9430.0  2.076E+01  4.947E+04
       945     9440.0  1.677E+01  4.963E+04
       946     9450.0  1.615E+01  4.979E+04
       947     9460.0  1.582E+01  4.995E+04
       948     9470.0  1.558E+01  5.011E+04
       949     9480.0  1.541E+01  5.026E+04
       950     9490.0  1.528E+01  5.042E+04
       951     9500.0  1.517E+01  5.057E+04
       952     9510.0  1.520E+01  5.072E+04
       953     9520.0  1.512E+01  5.087E+04
       954     9530.0  1.511E+01  5.102E+04
       955     9540.0  1.505E+01  5.117E+04
       956     9550.0  1.524E+01  5.132E+04
       957     9560.0  1.519E+01  5.148E+04
       958     9570.0  1.531E+01  5.163E+04
       959     9580.0  1.526E+01  5.178E+04
       960     9590.0  1.526E+01  5.193E+04
       961     9600.0  1.522E+01  5.209E+04
       962     9610.0  1.518E+01  5.224E+04
       963     9620.0  1.517E+01  5.239E+04
       964     9630.0  1.546E+01  5.254E+04
       965     9640.0  1.543E+01  5.270E+04
       966     9650.0  1.540E+01  5.285E+04
       967     9660.0  1.548E+01  5.301E+04
       968     9670.0  1.550E+01  5.316E+04
       969     9680.0  1.548E+01  5.332E+04
       970     9690.0  1.545E+01  5.347E+04
       971     9700.0  1.542E+01  5.363E+04
       972     9710.0  1.542E+01  5.378E+04
       973     9720.0  1.540E+01  5.393E+04
       974     9730.0  1.546E+01  5.409E+04
       975     9740.0  1.578E+01  5.425E+04
       976     9750.0  1.581E+01  5.440E+04
       977     9760.0  1.579E+01  5.456E+04
       978     9770.0  1.577E+01  5.472E+04
       979     9780.0  1.574E+01  5.488E+04
       980     9790.0  1.576E+01  5.504E+04
       981     9800.0  1.578E+01  5.519E+04
       982     9810.0  1.579E+01  5.535E+04
       983     9820.0  1.578E+01  5.551E+04
       984     9830.0  1.579E+01  5.567E+04
       985     9840.0  1.577E+01  5.582E+04
       986     9850.0  1.575E+01  5.598E+04
       987     9860.0  1.579E+01  5.614E+04
       988     9870.0  1.577E+01  5.630E+04
       989     9880.0  1.575E+01  5.646E+04
       990     9890.0  1.575E+01  5.661E+04
       991     9900.0  1.576E+01  5.677E+04
       992     9910.0  1.579E+01  5.693E+04
       993     9920.0  1.585E+01  5.709E+04
       994     9930.0  1.583E+01  5.724E+04
       995     9940.0  1.581E+01  5.740E+04
       996     9950.0  1.579E+01  5.756E+04
       997     9960.0  1.577E+01  5.772E+04
       998     9970.0  1.575E+01  5.788E+04
       999     9980.0  1.581E+01  5.803E+04
      1000     9990.0  1.581E+01  5.819E+04
      1001    10000.0  1.579E+01  5.835E+04
      1002    10010.0  1.581E+01  5.851E+04
      1003    10020.0  1.585E+01  5.867E+04
      1004    10030.0  1.595E+01  5.883E+04
      1005    10040.0  1.605E+01  5.899E+04
      1006    10050.0  1.616E+01  5.915E+04
      1007    10060.0  1.615E+01  5.931E+04
      1008    10070.0  1.617E+01  5.947E+04
      1009    10080.0  1.627E+01  5.963E+04
      1010    10090.0  1.636E+01  5.980E+04
      1011    10100.0  1.640E+01  5.996E+04
      1012    10110.0  2.345E+01  6.020E+04
      1013    10120.0  1.947E+01  6.039E+04
      1014    10130.0  1.877E+01  6.058E+04
      1015    10140.0  1.840E+01  6.076E+04
      1016    10150.0  1.824E+01  6.094E+04
      1017    10160.0  1.807E+01  6.113E+04
      1018    10170.0  1.807E+01  6.131E+04
      1019    10180.0  1.795E+01  6.149E+04
      1020    10190.0  1.791E+01  6.166E+04
      1021    10200.0  1.795E+01  6.184E+04
      1022    10210.0  1.794E+01  6.202E+04
      1023    10220.0  1.787E+01  6.220E+04
      1024    10230.0  1.781E+01  6.238E+04
      1025    10240.0  1.778E+01  6.256E+04
      1026    10250.0  1.778E+01  6.274E+04
      1027    10260.0  1.773E+01  6.291E+04
      1028    10270.0  1.768E+01  6.309E+04
      1029    10280.0  1.769E+01  6.327E+04
      1030    10290.0  1.765E+01  6.344E+04
      1031    10300.0  1.762E+01  6.362E+04
      1032    10310.0  1.766E+01  6.380E+04
      1033    10320.0  1.767E+01  6.397E+04
      1034    10330.0  1.764E+01  6.415E+04
      1035    10340.0  1.767E+01  6.433E+04
      1036    10350.0  1.771E+01  6.450E+04
      1037    10360.0  1.794E+01  6.468E+04
      1038    10370.0  1.791E+01  6.486E+04
      1039    10380.0  1.794E+01  6.504E+04
      1040    10390.0  1.798E+01  6.522E+04
      1041    10400.0  1.798E+01  6.540E+04
      1042    10410.0  1.796E+01  6.558E+04
      1043    10420.0  1.802E+01  6.576E+04
      1044    10430.0  1.806E+01  6.594E+04
      1045    10440.0  1.803E+01  6.612E+04
      1046    10450.0  1.802E+01  6.630E+04
      1047    10460.0  1.800E+01  6.648E+04
      1048    10470.0  1.797E+01  6.666E+04
      1049    10480.0  1.795E+01  6.684E+04
      1050    10490.0  1.799E+01  6.702E+04
      1051    10500.0  1.803E+01  6.720E+04
      1052    10510.0  1.803E+01  6.738E+04
      1053    10520.0  1.801E+01  6.756E+04
      1054    10530.0  1.800E+01  6.774E+04
      1055    10540.0  1.799E+01  6.792E+04
      1056    10550.0  1.810E+01  6.810E+04
      1057    10560.0  1.813E+01  6.828E+04
      1058    10570.0  1.811E+01  6.846E+04
      1059    10580.0  1.827E+01  6.865E+04
      1060    10590.0  1.841E+01  6.883E+04
      1061    10600.0  1.858E+01  6.902E+04
      1062    10610.0  1.856E+01  6.920E+04
      1063    10620.0  1.854E+01  6.939E+04
      1064    10630.0  1.856E+01  6.957E+04
      1065    10640.0  1.854E+01  6.976E+04
      1066    10650.0  1.852E+01  6.994E+04
      1067    10660.0  1.852E+01  7.013E+04
      1068    10670.0  1.850E+01  7.031E+04
      1069    10680.0  1.849E+01  7.050E+04
      1070    10690.0  1.863E+01  7.069E+04
      1071    10700.0  1.879E+01  7.087E+04
      1072    10710.0  1.883E+01  7.106E+04
      1073    10720.0  1.897E+01  7.125E+04
      1074    10730.0  1.904E+01  7.144E+04
      1075    10740.0  1.910E+01  7.163E+04
      1076    10750.0  1.909E+01  7.182E+04
      1077    10760.0  1.907E+01  7.201E+04
      1078    10770.0  1.907E+01  7.221E+04
      1079    10780.0  1.917E+01  7.240E+04
      1080    10790.0  1.920E+01  7.259E+04
      1081    10800.0  2.659E+01  7.286E+04
      1082    10810.0  2.231E+01  7.308E+04
      1083    10820.0  2.165E+01  7.329E+04
      1084    10830.0  2.126E+01  7.351E+04
      1085    10840.0  2.113E+01  7.372E+04
      1086    10850.0  2.094E+01  7.393E+04
      1087    10860.0  2.086E+01  7.414E+04
      1088    10870.0  2.079E+01  7.434E+04
      1089    10880.0  2.069E+01  7.455E+04
      1090    10890.0  2.066E+01  7.476E+04
      1091    10900.0  2.063E+01  7.496E+04
      1092    10910.0  2.056E+01  7.517E+04
      1093    10920.0  2.050E+01  7.538E+04
      1094    10930.0  2.047E+01  7.558E+04
      1095    10940.0  2.042E+01  7.578E+04
      1096    10950.0  2.041E+01  7.599E+04
      1097    10960.0  2.041E+01  7.619E+04
      1098    10970.0  2.043E+01  7.640E+04
      1099    10980.0  2.042E+01  7.660E+04
      1100    10990.0  2.038E+01  7.680E+04
      1101    11000.0  2.035E+01  7.701E+04
      1102    11010.0  2.060E+01  7.721E+04
      1103    11020.0  2.056E+01  7.742E+04
      1104    11030.0  2.057E+01  7.763E+04
      1105    11040.0  2.053E+01  7.783E+04
      1106    11050.0  2.061E+01  7.804E+04
      1107    11060.0  2.064E+01  7.824E+04
      1108    11070.0  2.062E+01  7.845E+04
      1109    11080.0  2.065E+01  7.866E+04
      1110    11090.0  2.087E+01  7.886E+04
      1111    11100.0  2.086E+01  7.907E+04
      1112    11110.0  2.086E+01  7.928E+04
      1113    11120.0  2.088E+01  7.949E+04
      1114    11130.0  2.088E+01  7.970E+04
      1115    11140.0  2.088E+01  7.991E+04
      1116    11150.0  2.091E+01  8.012E+04
      1117    11160.0  2.096E+01  8.033E+04
      1118    11170.0  2.113E+01  8.054E+04
      1119    11180.0  2.124E+01  8.075E+04
      1120    11190.0  2.134E+01  8.096E+04
      1121    11200.0  2.151E+01  8.118E+04
      1122    11210.0  2.153E+01  8.139E+04
      1123    11220.0  2.150E+01  8.161E+04
      1124    11230.0  2.153E+01  8.182E+04
      1125    11240.0  2.151E+01  8.204E+04
      1126    11250.0  2.148E+01  8.225E+04
      1127    11260.0  2.149E+01  8.247E+04
      1128    11270.0  2.147E+01  8.268E+04
      1129    11280.0  2.158E+01  8.290E+04
      1130    11290.0  2.156E+01  8.312E+04
      1131    11300.0  2.172E+01  8.333E+04
      1132    11310.0  2.191E+01  8.355E+04
      1133    11320.0  2.192E+01  8.377E+04
      1134    11330.0  2.196E+01  8.399E+04
      1135    11340.0  2.194E+01  8.421E+04
      1136    11350.0  2.195E+01  8.443E+04
      1137    11360.0  2.194E+01  8.465E+04
      1138    11370.0  2.194E+01  8.487E+04
      1139    11380.0  2.196E+01  8.509E+04
      1140    11390.0  2.202E+01  8.531E+04
      1141    11400.0  2.200E+01  8.553E+04
      1142    11410.0  2.203E+01  8.575E+04
      1143    11420.0  2.203E+01  8.597E+04
      1144    11430.0  2.208E+01  8.619E+04
      1145    11440.0  2.206E+01  8.641E+04
      1146    11450.0  2.207E+01  8.663E+04
      1147    11460.0  2.205E+01  8.685E+04
      1148    11470.0  2.205E+01  8.707E+04
      1149    11480.0  2.203E+01  8.729E+04
      1150    11490.0  2.201E+01  8.751E+04
      1151    11500.0  2.211E+01  8.773E+04
      1152    11510.0  2.209E+01  8.795E+04
      1153    11520.0  2.963E+01  8.825E+04
      1154    11530.0  2.523E+01  8.850E+04
      1155    11540.0  2.472E+01  8.875E+04
      1156    11550.0  2.433E+01  8.899E+04
      1157    11560.0  2.418E+01  8.924E+04
      1158    11570.0  2.399E+01  8.948E+04
      1159    11580.0  2.390E+01  8.971E+04
      1160    11590.0  2.381E+01  8.995E+04
      1161    11600.0  2.379E+01  9.019E+04
      1162    11610.0  2.377E+01  9.043E+04
      1163    11620.0  2.370E+01  9.067E+04
      1164    11630.0  2.386E+01  9.090E+04
      1165    11640.0  2.403E+01  9.114E+04
      1166    11650.0  2.401E+01  9.138E+04
      1167    11660.0  2.399E+01  9.162E+04
      1168    11670.0  2.394E+01  9.186E+04
      1169    11680.0  2.392E+01  9.210E+04
      1170    11690.0  2.415E+01  9.234E+04
      1171    11700.0  2.414E+01  9.259E+04
      1172    11710.0  2.409E+01  9.283E+04
      1173    11720.0  2.405E+01  9.307E+04
      1174    11730.0  2.401E+01  9.331E+04
      1175    11740.0  2.422E+01  9.355E+04
      1176    11750.0  2.419E+01  9.379E+04
      1177    11760.0  2.425E+01  9.403E+04
      1178    11770.0  2.425E+01  9.428E+04
      1179    11780.0  2.424E+01  9.452E+04
      1180    11790.0  2.435E+01  9.476E+04
      1181    11800.0  2.433E+01  9.501E+04
      1182    11810.0  2.433E+01  9.525E+04
      1183    11820.0  2.441E+01  9.549E+04
      1184    11830.0  2.446E+01  9.574E+04
      1185    11840.0  2.450E+01  9.598E+04
      1186    11850.0  2.454E+01  9.623E+04
      1187    11860.0  2.456E+01  9.647E+04
      1188    11870.0  2.454E+01  9.672E+04
      1189    11880.0  2.451E+01  9.696E+04
      1190    11890.0  2.453E+01  9.721E+04
      1191    11900.0  2.450E+01  9.745E+04
      1192    11910.0  2.469E+01  9.770E+04
      1193    11920.0  2.468E+01  9.795E+04
      1194    11930.0  2.492E+01  9.820E+04
      1195    11940.0  2.496E+01  9.845E+04
      1196    11950.0  2.500E+01  9.870E+04
      1197    11960.0  2.503E+01  9.895E+04
      1198    11970.0  2.500E+01  9.920E+04
      1199    11980.0  2.498E+01  9.945E+04
      1200    11990.0  2.500E+01  9.970E+04
      1201    12000.0  2.502E+01  9.995E+04
      1202    12010.0  2.501E+01  1.002E+05
      1203    12020.0  2.506E+01  1.004E+05
      1204    12030.0  2.508E+01  1.007E+05
      1205    12040.0  2.505E+01  1.009E+05
      1206    12050.0  2.524E+01  1.012E+05
      1207    12060.0  2.530E+01  1.015E+05
      1208    12070.0  2.527E+01  1.017E+05
      1209    12080.0  2.525E+01  1.020E+05
      1210    12090.0  2.527E+01  1.022E+05
      1211    12100.0  2.533E+01  1.025E+05
      1212    12110.0  2.531E+01  1.027E+05
      1213    12120.0  2.543E+01  1.030E+05
      1214    12130.0  2.552E+01  1.032E+05
      1215    12140.0  2.554E+01  1.035E+05
      1216    12150.0  2.554E+01  1.037E+05
      1217    12160.0  2.552E+01  1.040E+05
      1218    12170.0  2.551E+01  1.042E+05
      1219    12180.0  2.562E+01  1.045E+05
      1220    12190.0  2.569E+01  1.048E+05
      1221    12200.0  2.567E+01  1.050E+05
      1222    12210.0  2.567E+01  1.053E+05
      1223    12220.0  2.586E+01  1.055E+05
      1224    12230.0  2.597E+01  1.058E+05
      1225    12240.0  2.602E+01  1.061E+05
      1226    12250.0  2.604E+01  1.063E+05
      1227    12260.0  3.384E+01  1.067E+05
      1228    12270.0  2.934E+01  1.069E+05
      1229    12280.0  2.857E+01  1.072E+05
      1230    12290.0  2.844E+01  1.075E+05
      1231    12300.0  2.829E+01  1.078E+05
      1232    12310.0  2.812E+01  1.081E+05
      1233    12320.0  2.796E+01  1.084E+05
      1234    12330.0  2.789E+01  1.086E+05
      1235    12340.0  2.786E+01  1.089E+05
      1236    12350.0  2.784E+01  1.092E+05
      1237    12360.0  2.776E+01  1.095E+05
      1238    12370.0  2.768E+01  1.098E+05
      1239    12380.0  2.790E+01  1.100E+05
      1240    12390.0  2.790E+01  1.103E+05
      1241    12400.0  2.786E+01  1.106E+05
      1242    12410.0  2.795E+01  1.109E+05
      1243    12420.0  2.799E+01  1.111E+05
      1244    12430.0  2.798E+01  1.114E+05
      1245    12440.0  2.793E+01  1.117E+05
      1246    12450.0  2.791E+01  1.120E+05
      1247    12460.0  2.787E+01  1.123E+05
      1248    12470.0  2.795E+01  1.125E+05
      1249    12480.0  2.791E+01  1.128E+05
      1250    12490.0  2.789E+01  1.131E+05
      1251    12500.0  2.785E+01  1.134E+05
      1252    12510.0  2.796E+01  1.137E+05
      1253    12520.0  2.799E+01  1.139E+05
      1254    12530.0  2.816E+01  1.142E+05
      1255    12540.0  2.819E+01  1.145E+05
      1256    12550.0  2.826E+01  1.148E+05
      1257    12560.0  2.823E+01  1.151E+05
      1258    12570.0  2.828E+01  1.154E+05
      1259    12580.0  2.846E+01  1.156E+05
      1260    12590.0  2.863E+01  1.159E+05
      1261    12600.0  2.865E+01  1.162E+05
      1262    12610.0  2.870E+01  1.165E+05
      1263    12620.0  2.870E+01  1.168E+05
      1264    12630.0  2.880E+01  1.171E+05
      1265    12640.0  2.885E+01  1.174E+05
      1266    12650.0  2.884E+01  1.176E+05
      1267    12660.0  2.885E+01  1.179E+05
      1268    12670.0  2.883E+01  1.182E+05
      1269    12680.0  2.888E+01  1.185E+05
      1270    12690.0  2.888E+01  1.188E+05
      1271    12700.0  2.885E+01  1.191E+05
      1272    12710.0  2.883E+01  1.194E+05
      1273    12720.0  2.901E+01  1.197E+05
      1274    12730.0  2.898E+01  1.200E+05
      1275    12740.0  2.905E+01  1.202E+05
      1276    12750.0  2.913E+01  1.205E+05
      1277    12760.0  2.930E+01  1.208E+05
      1278    12770.0  2.932E+01  1.211E+05
      1279    12780.0  2.939E+01  1.214E+05
      1280    12790.0  2.948E+01  1.217E+05
      1281    12800.0  2.946E+01  1.220E+05
      1282    12810.0  2.946E+01  1.223E+05
      1283    12820.0  2.953E+01  1.226E+05
      1284    12830.0  2.970E+01  1.229E+05
      1285    12840.0  2.974E+01  1.232E+05
      1286    12850.0  2.973E+01  1.235E+05
      1287    12860.0  2.974E+01  1.238E+05
      1288    12870.0  2.986E+01  1.241E+05
      1289    12880.0  2.984E+01  1.244E+05
      1290    12890.0  2.982E+01  1.247E+05
      1291    12900.0  2.985E+01  1.250E+05
      1292    12910.0  2.991E+01  1.253E+05
      1293    12920.0  2.988E+01  1.256E+05
      1294    12930.0  2.993E+01  1.259E+05
      1295    12940.0  2.998E+01  1.262E+05
      1296    12950.0  2.995E+01  1.265E+05
      1297    12960.0  2.995E+01  1.268E+05
      1298    12970.0  2.993E+01  1.271E+05
      1299    12980.0  2.990E+01  1.274E+05
      1300    12990.0  2.988E+01  1.277E+05
      1301    13000.0  3.002E+01  1.280E+05
      1302    13010.0  3.007E+01  1.283E+05
      1303    13020.0  3.008E+01  1.286E+05
      1304    13030.0  3.815E+01  1.290E+05
      1305    13040.0  3.346E+01  1.293E+05
      1306    13050.0  3.273E+01  1.296E+05
      1307    13060.0  3.258E+01  1.299E+05
      1308    13070.0  3.236E+01  1.303E+05
      1309    13080.0  3.219E+01  1.306E+05
      1310    13090.0  3.207E+01  1.309E+05
      1311    13100.0  3.256E+01  1.312E+05
      1312    13110.0  3.244E+01  1.316E+05
      1313    13120.0  3.235E+01  1.319E+05
      1314    13130.0  3.226E+01  1.322E+05
      1315    13140.0  3.238E+01  1.325E+05
      1316    13150.0  3.231E+01  1.329E+05
      1317    13160.0  3.237E+01  1.332E+05
      1318    13170.0  3.244E+01  1.335E+05
      1319    13180.0  3.255E+01  1.338E+05
      1320    13190.0  3.252E+01  1.342E+05
      1321    13200.0  3.257E+01  1.345E+05
      1322    13210.0  3.253E+01  1.348E+05
      1323    13220.0  3.248E+01  1.351E+05
      1324    13230.0  3.243E+01  1.355E+05
      1325    13240.0  3.242E+01  1.358E+05
      1326    13250.0  3.252E+01  1.361E+05
      1327    13260.0  3.275E+01  1.364E+05
      1328    13270.0  3.271E+01  1.368E+05
      1329    13280.0  3.285E+01  1.371E+05
      1330    13290.0  3.290E+01  1.374E+05
      1331    13300.0  3.301E+01  1.377E+05
      1332    13310.0  3.301E+01  1.381E+05
      1333    13320.0  3.298E+01  1.384E+05
      1334    13330.0  3.299E+01  1.387E+05
      1335    13340.0  3.296E+01  1.391E+05
      1336    13350.0  3.299E+01  1.394E+05
      1337    13360.0  3.298E+01  1.397E+05
      1338    13370.0  3.310E+01  1.401E+05
      1339    13380.0  3.315E+01  1.404E+05
      1340    13390.0  3.312E+01  1.407E+05
      1341    13400.0  3.326E+01  1.411E+05
      1342    13410.0  3.323E+01  1.414E+05
      1343    13420.0  3.325E+01  1.417E+05
      1344    13430.0  3.322E+01  1.420E+05
      1345    13440.0  3.328E+01  1.424E+05
      1346    13450.0  3.349E+01  1.427E+05
      1347    13460.0  3.346E+01  1.430E+05
      1348    13470.0  3.358E+01  1.434E+05
      1349    13480.0  3.371E+01  1.437E+05
      1350    13490.0  3.372E+01  1.441E+05
      1351    13500.0  3.370E+01  1.444E+05
      1352    13510.0  3.385E+01  1.447E+05
      1353    13520.0  3.382E+01  1.451E+05
      1354    13530.0  3.380E+01  1.454E+05
      1355    13540.0  3.383E+01  1.457E+05
      1356    13550.0  3.381E+01  1.461E+05
      1357    13560.0  3.381E+01  1.464E+05
      1358    13570.0  3.379E+01  1.468E+05
      1359    13580.0  3.377E+01  1.471E+05
      1360    13590.0  3.380E+01  1.474E+05
      1361    13600.0  3.387E+01  1.478E+05
      1362    13610.0  3.390E+01  1.481E+05
      1363    13620.0  3.401E+01  1.485E+05
      1364    13630.0  3.418E+01  1.488E+05
      1365    13640.0  3.425E+01  1.491E+05
      1366    13650.0  3.431E+01  1.495E+05
      1367    13660.0  3.437E+01  1.498E+05
      1368    13670.0  3.435E+01  1.502E+05
      1369    13680.0  3.433E+01  1.505E+05
      1370    13690.0  3.434E+01  1.509E+05
      1371    13700.0  3.432E+01  1.512E+05
      1372    13710.0  3.429E+01  1.515E+05
      1373    13720.0  3.456E+01  1.519E+05
      1374    13730.0  3.465E+01  1.522E+05
      1375    13740.0  3.491E+01  1.526E+05
      1376    13750.0  3.490E+01  1.529E+05
      1377    13760.0  3.488E+01  1.533E+05
      1378    13770.0  3.496E+01  1.536E+05
      1379    13780.0  3.496E+01  1.540E+05
      1380    13790.0  3.504E+01  1.543E+05
      1381    13800.0  3.506E+01  1.547E+05
      1382    13810.0  3.504E+01  1.550E+05
      1383    13820.0  4.340E+01  1.555E+05
      1384    13830.0  3.880E+01  1.559E+05
      1385    13840.0  3.837E+01  1.562E+05
      1386    13850.0  3.793E+01  1.566E+05
      1387    13860.0  3.789E+01  1.570E+05
      1388    13870.0  3.768E+01  1.574E+05
      1389    13880.0  3.757E+01  1.578E+05
      1390    13890.0  3.754E+01  1.581E+05
      1391    13900.0  3.744E+01  1.585E+05
      1392    13910.0  3.740E+01  1.589E+05
      1393    13920.0  3.733E+01  1.592E+05
      1394    13930.0  3.738E+01  1.596E+05
      1395    13940.0  3.731E+01  1.600E+05
      1396    13950.0  3.747E+01  1.604E+05
      1397    13960.0  3.741E+01  1.607E+05
      1398    13970.0  3.739E+01  1.611E+05
      1399    13980.0  3.745E+01  1.615E+05
      1400    13990.0  3.755E+01  1.619E+05
      1401    14000.0  3.751E+01  1.622E+05
      1402    14010.0  3.759E+01  1.626E+05
      1403    14020.0  3.754E+01  1.630E+05
      1404    14030.0  3.749E+01  1.634E+05
      1405    14040.0  3.752E+01  1.637E+05
      1406    14050.0  3.763E+01  1.641E+05
      1407    14060.0  3.759E+01  1.645E+05
      1408    14070.0  3.761E+01  1.649E+05
      1409    14080.0  3.768E+01  1.652E+05
      1410    14090.0  3.770E+01  1.656E+05
      1411    14100.0  3.799E+01  1.660E+05
      1412    14110.0  3.805E+01  1.664E+05
      1413    14120.0  3.803E+01  1.668E+05
      1414    14130.0  3.799E+01  1.671E+05
      1415    14140.0  3.816E+01  1.675E+05
      1416    14150.0  3.832E+01  1.679E+05
      1417    14160.0  3.843E+01  1.683E+05
      1418    14170.0  3.841E+01  1.687E+05
      1419    14180.0  3.841E+01  1.691E+05
      1420    14190.0  3.849E+01  1.694E+05
      1421    14200.0  3.846E+01  1.698E+05
      1422    14210.0  3.852E+01  1.702E+05
      1423    14220.0  3.854E+01  1.706E+05
      1424    14230.0  3.854E+01  1.710E+05
      1425    14240.0  3.856E+01  1.714E+05
      1426    14250.0  3.871E+01  1.718E+05
      1427    14260.0  3.883E+01  1.722E+05
      1428    14270.0  3.894E+01  1.725E+05
      1429    14280.0  3.901E+01  1.729E+05
      1430    14290.0  3.899E+01  1.733E+05
      1431    14300.0  3.912E+01  1.737E+05
      1432    14310.0  3.915E+01  1.741E+05
      1433    14320.0  3.912E+01  1.745E+05
      1434    14330.0  3.936E+01  1.749E+05
      1435    14340.0  3.933E+01  1.753E+05
      1436    14350.0  3.937E+01  1.757E+05
      1437    14360.0  3.934E+01  1.761E+05
      1438    14370.0  3.940E+01  1.765E+05
      1439    14380.0  3.947E+01  1.769E+05
      1440    14390.0  3.946E+01  1.773E+05
      1441    14400.0  3.945E+01  1.776E+05
      1442    14410.0  3.956E+01  1.780E+05
      1443    14420.0  3.974E+01  1.784E+05
      1444    14430.0  3.997E+01  1.788E+05
      1445    14440.0  3.994E+01  1.792E+05
      1446    14450.0  3.998E+01  1.796E+05
      1447    14460.0  4.002E+01  1.800E+05
      1448    14470.0  4.006E+01  1.804E+05
      1449    14480.0  4.003E+01  1.808E+05
      1450    14490.0  4.001E+01  1.812E+05
      1451    14500.0  4.001E+01  1.816E+05
      1452    14510.0  4.005E+01  1.820E+05
      1453    14520.0  4.006E+01  1.824E+05
      1454    14530.0  4.011E+01  1.828E+05
      1455    14540.0  4.012E+01  1.832E+05
      1456    14550.0  4.027E+01  1.836E+05
      1457    14560.0  4.031E+01  1.840E+05
      1458    14570.0  4.035E+01  1.845E+05
      1459    14580.0  4.038E+01  1.849E+05
      1460    14590.0  4.044E+01  1.853E+05
      1461    14600.0  4.059E+01  1.857E+05
      1462    14610.0  4.095E+01  1.861E+05
      1463    14620.0  4.108E+01  1.865E+05
      1464    14630.0  4.969E+01  1.870E+05
      1465    14640.0  4.487E+01  1.874E+05
      1466    14650.0  4.402E+01  1.879E+05
      1467    14660.0  4.367E+01  1.883E+05
      1468    14670.0  4.365E+01  1.887E+05
      1469    14680.0  4.354E+01  1.892E+05
      1470    14690.0  4.352E+01  1.896E+05
      1471    14700.0  4.346E+01  1.901E+05
      1472    14710.0  4.337E+01  1.905E+05
      1473    14720.0  4.347E+01  1.909E+05
      1474    14730.0  4.348E+01  1.914E+05
      1475    14740.0  4.346E+01  1.918E+05
      1476    14750.0  4.355E+01  1.922E+05
      1477    14760.0  4.351E+01  1.927E+05
      1478    14770.0  4.365E+01  1.931E+05
      1479    14780.0  4.380E+01  1.935E+05
      1480    14790.0  4.387E+01  1.940E+05
      1481    14800.0  4.386E+01  1.944E+05
      1482    14810.0  4.386E+01  1.948E+05
      1483    14820.0  4.384E+01  1.953E+05
      1484    14830.0  4.379E+01  1.957E+05
      1485    14840.0  4.389E+01  1.962E+05
      1486    14850.0  4.384E+01  1.966E+05
      1487    14860.0  4.382E+01  1.970E+05
      1488    14870.0  4.386E+01  1.975E+05
      1489    14880.0  4.384E+01  1.979E+05
      1490    14890.0  4.380E+01  1.984E+05
      1491    14900.0  4.384E+01  1.988E+05
      1492    14910.0  4.395E+01  1.992E+05
      1493    14920.0  4.394E+01  1.997E+05
      1494    14930.0  4.398E+01  2.001E+05
      1495    14940.0  4.405E+01  2.006E+05
      1496    14950.0  4.432E+01  2.010E+05
      1497    14960.0  4.455E+01  2.014E+05
      1498    14970.0  4.452E+01  2.019E+05
      1499    14980.0  4.456E+01  2.023E+05
      1500    14990.0  4.459E+01  2.028E+05
      1501    15000.0  4.458E+01  2.032E+05
      1502    15010.0  4.455E+01  2.037E+05
      1503    15020.0  4.474E+01  2.041E+05
      1504    15030.0  4.472E+01  2.046E+05
      1505    15040.0  4.472E+01  2.050E+05
      1506    15050.0  4.482E+01  2.055E+05
      1507    15060.0  4.481E+01  2.059E+05
      1508    15070.0  4.488E+01  2.064E+05
      1509    15080.0  4.491E+01  2.068E+05
      1510    15090.0  4.488E+01  2.073E+05
      1511    15100.0  4.487E+01  2.077E+05
      1512    15110.0  4.495E+01  2.082E+05
      1513    15120.0  4.492E+01  2.086E+05
      1514    15130.0  4.496E+01  2.091E+05
      1515    15140.0  4.503E+01  2.095E+05
      1516    15150.0  4.524E+01  2.100E+05
      1517    15160.0  4.541E+01  2.104E+05
      1518    15170.0  4.539E+01  2.109E+05
      1519    15180.0  4.554E+01  2.113E+05
      1520    15190.0  4.557E+01  2.118E+05
      1521    15200.0  4.565E+01  2.122E+05
      1522    15210.0  4.570E+01  2.127E+05
      1523    15220.0  4.570E+01  2.131E+05
      1524    15230.0  4.577E+01  2.136E+05
      1525    15240.0  4.578E+01  2.141E+05
      1526    15250.0  4.583E+01  2.145E+05
      1527    15260.0  4.590E+01  2.150E+05
      1528    15270.0  4.609E+01  2.154E+05
      1529    15280.0  4.607E+01  2.159E+05
      1530    15290.0  4.610E+01  2.164E+05
      1531    15300.0  4.610E+01  2.168E+05
      1532    15310.0  4.613E+01  2.173E+05
      1533    15320.0  4.636E+01  2.177E+05
      1534    15330.0  4.648E+01  2.182E+05
      1535    15340.0  4.669E+01  2.187E+05
      1536    15350.0  4.679E+01  2.191E+05
      1537    15360.0  4.689E+01  2.196E+05
      1538    15370.0  4.697E+01  2.201E+05
      1539    15380.0  4.715E+01  2.206E+05
      1540    15390.0  4.719E+01  2.210E+05
      1541    15400.0  4.757E+01  2.215E+05
      1542    15410.0  4.778E+01  2.220E+05
      1543    15420.0  4.780E+01  2.225E+05
      1544    15430.0  4.793E+01  2.229E+05
      1545    15440.0  4.794E+01  2.234E+05
      1546    15450.0  4.791E+01  2.239E+05
      1547    15460.0  4.789E+01  2.244E+05
      1548    15470.0  5.699E+01  2.249E+05
      1549    15480.0  5.192E+01  2.255E+05
      1550    15490.0  5.114E+01  2.260E+05
      1551    15500.0  5.070E+01  2.265E+05
      1552    15510.0  5.046E+01  2.270E+05
      1553    15520.0  5.026E+01  2.275E+05
      1554    15530.0  5.036E+01  2.280E+05
      1555    15540.0  5.026E+01  2.285E+05
      1556    15550.0  5.020E+01  2.290E+05
      1557    15560.0  5.010E+01  2.295E+05
      1558    15570.0  5.019E+01  2.300E+05
      1559    15580.0  5.015E+01  2.305E+05
      1560    15590.0  5.016E+01  2.310E+05
      1561    15600.0  5.033E+01  2.315E+05
      1562    15610.0  5.026E+01  2.320E+05
      1563    15620.0  5.029E+01  2.325E+05
      1564    15630.0  5.024E+01  2.330E+05
      1565    15640.0  5.040E+01  2.335E+05
      1566    15650.0  5.038E+01  2.340E+05
      1567    15660.0  5.033E+01  2.345E+05
      1568    15670.0  5.036E+01  2.350E+05
      1569    15680.0  5.043E+01  2.355E+05
      1570    15690.0  5.044E+01  2.360E+05
      1571    15700.0  5.050E+01  2.365E+05
      1572    15710.0  5.070E+01  2.371E+05
      1573    15720.0  5.079E+01  2.376E+05
      1574    15730.0  5.080E+01  2.381E+05
      1575    15740.0  5.075E+01  2.386E+05
      1576    15750.0  5.095E+01  2.391E+05
      1577    15760.0  5.093E+01  2.396E+05
      1578    15770.0  5.104E+01  2.401E+05
      1579    15780.0  5.101E+01  2.406E+05
      1580    15790.0  5.122E+01  2.411E+05
      1581    15800.0  5.119E+01  2.416E+05
      1582    15810.0  5.132E+01  2.422E+05
      1583    15820.0  5.138E+01  2.427E+05
      1584    15830.0  5.145E+01  2.432E+05
      1585    15840.0  5.141E+01  2.437E+05
      1586    15850.0  5.158E+01  2.442E+05
      1587    15860.0  5.159E+01  2.447E+05
      1588    15870.0  5.166E+01  2.452E+05
      1589    15880.0  5.166E+01  2.458E+05
      1590    15890.0  5.185E+01  2.463E+05
      1591    15900.0  5.183E+01  2.468E+05
      1592    15910.0  5.180E+01  2.473E+05
      1593    15920.0  5.189E+01  2.478E+05
      1594    15930.0  5.206E+01  2.484E+05
      1595    15940.0  5.203E+01  2.489E+05
      1596    15950.0  5.210E+01  2.494E+05
      1597    15960.0  5.224E+01  2.499E+05
      1598    15970.0  5.230E+01  2.504E+05
      1599    15980.0  5.234E+01  2.510E+05
      1600    15990.0  5.233E+01  2.515E+05
      1601    16000.0  5.241E+01  2.520E+05
      1602    16010.0  5.273E+01  2.525E+05
      1603    16020.0  5.290E+01  2.531E+05
      1604    16030.0  5.291E+01  2.536E+05
      1605    16040.0  5.293E+01  2.541E+05
      1606    16050.0  5.298E+01  2.547E+05
      1607    16060.0  5.306E+01  2.552E+05
      1608    16070.0  5.309E+01  2.557E+05
      1609    16080.0  5.316E+01  2.562E+05
      1610    16090.0  5.319E+01  2.568E+05
      1611    16100.0  5.320E+01  2.573E+05
      1612    16110.0  5.320E+01  2.578E+05
      1613    16120.0  5.332E+01  2.584E+05
      1614    16130.0  5.347E+01  2.589E+05
      1615    16140.0  5.345E+01  2.594E+05
      1616    16150.0  5.353E+01  2.600E+05
      1617    16160.0  5.375E+01  2.605E+05
      1618    16170.0  5.380E+01  2.611E+05
      1619    16180.0  5.430E+01  2.616E+05
      1620    16190.0  5.462E+01  2.621E+05
      1621    16200.0  5.468E+01  2.627E+05
      1622    16210.0  5.509E+01  2.632E+05
      1623    16220.0  5.513E+01  2.638E+05
      1624    16230.0  5.527E+01  2.643E+05
      1625    16240.0  5.530E+01  2.649E+05
      1626    16250.0  5.535E+01  2.655E+05
      1627    16260.0  5.544E+01  2.660E+05
      1628    16270.0  5.541E+01  2.666E+05
      1629    16280.0  5.557E+01  2.671E+05
      1630    16290.0  5.579E+01  2.677E+05
      1631    16300.0  5.585E+01  2.682E+05
      1632    16310.0  5.582E+01  2.688E+05
      1633    16320.0  5.583E+01  2.694E+05
      1634    16330.0  6.495E+01  2.700E+05
      1635    16340.0  5.975E+01  2.706E+05
      1636    16350.0  5.890E+01  2.712E+05
      1637    16360.0  5.850E+01  2.718E+05
      1638    16370.0  5.821E+01  2.724E+05
      1639    16380.0  5.806E+01  2.729E+05
      1640    16390.0  5.794E+01  2.735E+05
      1641    16400.0  5.784E+01  2.741E+05
      1642    16410.0  5.786E+01  2.747E+05
      1643    16420.0  5.799E+01  2.753E+05
      1644    16430.0  5.788E+01  2.758E+05
      1645    16440.0  5.779E+01  2.764E+05
      1646    16450.0  5.778E+01  2.770E+05
      1647    16460.0  5.776E+01  2.776E+05
      1648    16470.0  5.770E+01  2.781E+05
      1649    16480.0  5.787E+01  2.787E+05
      1650    16490.0  5.790E+01  2.793E+05
      1651    16500.0  5.786E+01  2.799E+05
      1652    16510.0  5.799E+01  2.805E+05
      1653    16520.0  5.799E+01  2.810E+05
      1654    16530.0  5.814E+01  2.816E+05
      1655    16540.0  5.813E+01  2.822E+05
      1656    16550.0  5.821E+01  2.828E+05
      1657    16560.0  5.827E+01  2.834E+05
      1658    16570.0  5.828E+01  2.839E+05
      1659    16580.0  5.829E+01  2.845E+05
      1660    16590.0  5.839E+01  2.851E+05
      1661    16600.0  5.844E+01  2.857E+05
      1662    16610.0  5.863E+01  2.863E+05
      1663    16620.0  5.861E+01  2.869E+05
      1664    16630.0  5.857E+01  2.875E+05
      1665    16640.0  5.853E+01  2.880E+05
      1666    16650.0  5.874E+01  2.886E+05
      1667    16660.0  5.893E+01  2.892E+05
      1668    16670.0  5.911E+01  2.898E+05
      1669    16680.0  5.910E+01  2.904E+05
      1670    16690.0  5.929E+01  2.910E+05
      1671    16700.0  5.930E+01  2.916E+05
      1672    16710.0  5.939E+01  2.922E+05
      1673    16720.0  5.949E+01  2.928E+05
      1674    16730.0  5.973E+01  2.934E+05
      1675    16740.0  5.974E+01  2.940E+05
      1676    16750.0  5.970E+01  2.946E+05
      1677    16760.0  5.969E+01  2.952E+05
      1678    16770.0  5.973E+01  2.958E+05
      1679    16780.0  5.995E+01  2.964E+05
      1680    16790.0  6.001E+01  2.970E+05
      1681    16800.0  5.997E+01  2.976E+05
      1682    16810.0  6.016E+01  2.982E+05
      1683    16820.0  6.018E+01  2.988E+05
      1684    16830.0  6.019E+01  2.994E+05
      1685    16840.0  6.043E+01  3.000E+05
      1686    16850.0  6.056E+01  3.006E+05
      1687    16860.0  6.075E+01  3.012E+05
      1688    16870.0  6.087E+01  3.018E+05
      1689    16880.0  6.088E+01  3.024E+05
      1690    16890.0  6.091E+01  3.030E+05
      1691    16900.0  6.109E+01  3.036E+05
      1692    16910.0  6.113E+01  3.042E+05
      1693    16920.0  6.118E+01  3.048E+05
      1694    16930.0  6.141E+01  3.055E+05
      1695    16940.0  6.151E+01  3.061E+05
      1696    16950.0  6.153E+01  3.067E+05
      1697    16960.0  6.154E+01  3.073E+05
      1698    16970.0  6.208E+01  3.079E+05
      1699    16980.0  6.210E+01  3.085E+05
      1700    16990.0  6.214E+01  3.092E+05
      1701    17000.0  6.212E+01  3.098E+05
      1702    17010.0  6.218E+01  3.104E+05
      1703    17020.0  6.230E+01  3.110E+05
      1704    17030.0  6.234E+01  3.117E+05
      1705    17040.0  6.241E+01  3.123E+05
      1706    17050.0  6.276E+01  3.129E+05
      1707    17060.0  6.293E+01  3.135E+05
      1708    17070.0  6.313E+01  3.142E+05
      1709    17080.0  6.313E+01  3.148E+05
      1710    17090.0  6.311E+01  3.154E+05
      1711    17100.0  6.318E+01  3.161E+05
      1712    17110.0  6.333E+01  3.167E+05
      1713    17120.0  6.344E+01  3.173E+05
      1714    17130.0  6.360E+01  3.180E+05
      1715    17140.0  6.373E+01  3.186E+05
      1716    17150.0  6.384E+01  3.192E+05
      1717    17160.0  6.398E+01  3.199E+05
      1718    17170.0  6.398E+01  3.205E+05
      1719    17180.0  6.408E+01  3.212E+05
      1720    17190.0  6.405E+01  3.218E+05
      1721    17200.0  6.408E+01  3.224E+05
      1722    17210.0  7.351E+01  3.232E+05
      1723    17220.0  6.819E+01  3.239E+05
      1724    17230.0  6.740E+01  3.245E+05
      1725    17240.0  6.704E+01  3.252E+05
      1726    17250.0  6.682E+01  3.259E+05
      1727    17260.0  6.658E+01  3.265E+05
      1728    17270.0  6.660E+01  3.272E+05
      1729    17280.0  6.654E+01  3.279E+05
      1730    17290.0  6.673E+01  3.285E+05
      1731    17300.0  6.664E+01  3.292E+05
      1732    17310.0  6.664E+01  3.299E+05
      1733    17320.0  6.657E+01  3.305E+05
      1734    17330.0  6.661E+01  3.312E+05
      1735    17340.0  6.662E+01  3.319E+05
      1736    17350.0  6.663E+01  3.325E+05
      1737    17360.0  6.657E+01  3.332E+05
      1738    17370.0  6.652E+01  3.339E+05
      1739    17380.0  6.649E+01  3.345E+05
      1740    17390.0  6.666E+01  3.352E+05
      1741    17400.0  6.667E+01  3.359E+05
      1742    17410.0  6.665E+01  3.365E+05
      1743    17420.0  6.675E+01  3.372E+05
      1744    17430.0  6.671E+01  3.379E+05
      1745    17440.0  6.672E+01  3.385E+05
      1746    17450.0  6.698E+01  3.392E+05
      1747    17460.0  6.703E+01  3.399E+05
      1748    17470.0  6.721E+01  3.405E+05
      1749    17480.0  6.729E+01  3.412E+05
      1750    17490.0  6.730E+01  3.419E+05
      1751    17500.0  6.733E+01  3.426E+05
      1752    17510.0  6.731E+01  3.432E+05
      1753    17520.0  6.764E+01  3.439E+05
      1754    17530.0  6.766E+01  3.446E+05
      1755    17540.0  6.762E+01  3.453E+05
      1756    17550.0  6.780E+01  3.459E+05
      1757    17560.0  6.799E+01  3.466E+05
      1758    17570.0  6.846E+01  3.473E+05
      1759    17580.0  6.864E+01  3.480E+05
      1760    17590.0  6.878E+01  3.487E+05
      1761    17600.0  6.887E+01  3.494E+05
      1762    17610.0  6.890E+01  3.501E+05
      1763    17620.0  6.911E+01  3.508E+05
      1764    17630.0  6.912E+01  3.514E+05
      1765    17640.0  6.917E+01  3.521E+05
      1766    17650.0  6.927E+01  3.528E+05
      1767    17660.0  6.940E+01  3.535E+05
      1768    17670.0  6.956E+01  3.542E+05
      1769    17680.0  6.977E+01  3.549E+05
      1770    17690.0  7.012E+01  3.556E+05
      1771    17700.0  7.035E+01  3.563E+05
      1772    17710.0  7.034E+01  3.570E+05
      1773    17720.0  7.032E+01  3.577E+05
      1774    17730.0  7.036E+01  3.584E+05
      1775    17740.0  7.055E+01  3.591E+05
      1776    17750.0  7.056E+01  3.598E+05
      1777    17760.0  7.059E+01  3.605E+05
      1778    17770.0  7.069E+01  3.613E+05
      1779    17780.0  7.098E+01  3.620E+05
      1780    17790.0  7.097E+01  3.627E+05
      1781    17800.0  7.109E+01  3.634E+05
      1782    17810.0  7.106E+01  3.641E+05
      1783    17820.0  7.114E+01  3.648E+05
      1784    17830.0  7.127E+01  3.655E+05
      1785    17840.0  7.134E+01  3.662E+05
      1786    17850.0  7.151E+01  3.669E+05
      1787    17860.0  7.150E+01  3.677E+05
      1788    17870.0  7.149E+01  3.684E+05
      1789    17880.0  7.165E+01  3.691E+05
      1790    17890.0  7.162E+01  3.698E+05
      1791    17900.0  7.173E+01  3.705E+05
      1792    17910.0  7.214E+01  3.712E+05
      1793    17920.0  7.226E+01  3.720E+05
      1794    17930.0  7.227E+01  3.727E+05
      1795    17940.0  7.234E+01  3.734E+05
      1796    17950.0  7.239E+01  3.741E+05
      1797    17960.0  7.243E+01  3.749E+05
      1798    17970.0  7.252E+01  3.756E+05
      1799    17980.0  7.268E+01  3.763E+05
      1800    17990.0  7.277E+01  3.770E+05
      1801    18000.0  7.300E+01  3.778E+05
      1802    18010.0  7.318E+01  3.785E+05
      1803    18020.0  7.329E+01  3.792E+05
      1804    18030.0  7.347E+01  3.800E+05
      1805    18040.0  7.349E+01  3.807E+05
      1806    18050.0  7.350E+01  3.814E+05
      1807    18060.0  7.356E+01  3.822E+05
      1808    18070.0  7.367E+01  3.829E+05
      1809    18080.0  7.377E+01  3.837E+05
      1810    18090.0  7.380E+01  3.844E+05
      1811    18100.0  7.378E+01  3.851E+05
      1812    18110.0  8.333E+01  3.860E+05
      1813    18120.0  7.783E+01  3.867E+05
      1814    18130.0  7.713E+01  3.875E+05
      1815    18140.0  7.664E+01  3.883E+05
      1816    18150.0  7.647E+01  3.890E+05
      1817    18160.0  7.625E+01  3.898E+05
      1818    18170.0  7.636E+01  3.906E+05
      1819    18180.0  7.626E+01  3.913E+05
      1820    18190.0  7.620E+01  3.921E+05
      1821    18200.0  7.629E+01  3.929E+05
      1822    18210.0  7.652E+01  3.936E+05
      1823    18220.0  7.652E+01  3.944E+05
      1824    18230.0  7.663E+01  3.952E+05
      1825    18240.0  7.673E+01  3.959E+05
      1826    18250.0  7.682E+01  3.967E+05
      1827    18260.0  7.706E+01  3.975E+05
      1828    18270.0  7.721E+01  3.982E+05
      1829    18280.0  7.716E+01  3.990E+05
      1830    18290.0  7.711E+01  3.998E+05
      1831    18300.0  7.716E+01  4.005E+05
      1832    18310.0  7.710E+01  4.013E+05
      1833    18320.0  7.712E+01  4.021E+05
      1834    18330.0  7.706E+01  4.029E+05
      1835    18340.0  7.705E+01  4.036E+05
      1836    18350.0  7.729E+01  4.044E+05
      1837    18360.0  7.736E+01  4.052E+05
      1838    18370.0  7.744E+01  4.060E+05
      1839    18380.0  7.774E+01  4.067E+05
      1840    18390.0  7.805E+01  4.075E+05
      1841    18400.0  7.822E+01  4.083E+05
      1842    18410.0  7.824E+01  4.091E+05
      1843    18420.0  7.825E+01  4.099E+05
      1844    18430.0  7.871E+01  4.106E+05
      1845    18440.0  7.866E+01  4.114E+05
      1846    18450.0  7.881E+01  4.122E+05
      1847    18460.0  7.897E+01  4.130E+05
      1848    18470.0  7.897E+01  4.138E+05
      1849    18480.0  7.944E+01  4.146E+05
      1850    18490.0  7.967E+01  4.154E+05
      1851    18500.0  7.973E+01  4.162E+05
      1852    18510.0  7.972E+01  4.170E+05
      1853    18520.0  7.986E+01  4.178E+05
      1854    18530.0  7.999E+01  4.186E+05
      1855    18540.0  7.996E+01  4.194E+05
      1856    18550.0  7.994E+01  4.202E+05
      1857    18560.0  7.992E+01  4.210E+05
      1858    18570.0  8.009E+01  4.218E+05
      1859    18580.0  8.005E+01  4.226E+05
      1860    18590.0  8.007E+01  4.234E+05
      1861    18600.0  8.020E+01  4.242E+05
      1862    18610.0  8.039E+01  4.250E+05
      1863    18620.0  8.082E+01  4.258E+05
      1864    18630.0  8.087E+01  4.266E+05
      1865    18640.0  8.107E+01  4.274E+05
      1866    18650.0  8.112E+01  4.282E+05
      1867    18660.0  8.111E+01  4.290E+05
      1868    18670.0  8.120E+01  4.298E+05
      1869    18680.0  8.120E+01  4.307E+05
      1870    18690.0  8.124E+01  4.315E+05
      1871    18700.0  8.138E+01  4.323E+05
      1872    18710.0  8.144E+01  4.331E+05
      1873    18720.0  8.141E+01  4.339E+05
      1874    18730.0  8.162E+01  4.347E+05
      1875    18740.0  8.183E+01  4.356E+05
      1876    18750.0  8.195E+01  4.364E+05
      1877    18760.0  8.220E+01  4.372E+05
      1878    18770.0  8.216E+01  4.380E+05
      1879    18780.0  8.232E+01  4.388E+05
      1880    18790.0  8.276E+01  4.397E+05
      1881    18800.0  8.278E+01  4.405E+05
      1882    18810.0  8.291E+01  4.413E+05
      1883    18820.0  8.295E+01  4.422E+05
      1884    18830.0  8.308E+01  4.430E+05
      1885    18840.0  8.310E+01  4.438E+05
      1886    18850.0  8.331E+01  4.446E+05
      1887    18860.0  8.341E+01  4.455E+05
      1888    18870.0  8.353E+01  4.463E+05
      1889    18880.0  8.361E+01  4.472E+05
      1890    18890.0  8.381E+01  4.480E+05
      1891    18900.0  8.379E+01  4.488E+05
      1892    18910.0  8.383E+01  4.497E+05
      1893    18920.0  8.383E+01  4.505E+05
      1894    18930.0  8.405E+01  4.513E+05
      1895    18940.0  8.420E+01  4.522E+05
      1896    18950.0  8.423E+01  4.530E+05
      1897    18960.0  8.431E+01  4.539E+05
      1898    18970.0  8.429E+01  4.547E+05
      1899    18980.0  8.431E+01  4.556E+05
      1900    18990.0  8.445E+01  4.564E+05
      1901    19000.0  8.441E+01  4.572E+05
      1902    19010.0  8.464E+01  4.581E+05
      1903    19020.0  8.479E+01  4.589E+05
      1904    19030.0  8.517E+01  4.598E+05
      1905    19040.0  9.489E+01  4.607E+05
      1906    19050.0  8.927E+01  4.616E+05
      1907    19060.0  8.850E+01  4.625E+05
      1908    19070.0  8.811E+01  4.634E+05
      1909    19080.0  8.806E+01  4.643E+05
      1910    19090.0  8.788E+01  4.652E+05
      1911    19100.0  8.790E+01  4.660E+05
      1912    19110.0  8.800E+01  4.669E+05
      1913    19120.0  8.826E+01  4.678E+05
      1914    19130.0  8.835E+01  4.687E+05
      1915    19140.0  8.845E+01  4.696E+05
      1916    19150.0  8.851E+01  4.705E+05
      1917    19160.0  8.866E+01  4.713E+05
      1918    19170.0  8.887E+01  4.722E+05
      1919    19180.0  8.884E+01  4.731E+05
      1920    19190.0  8.888E+01  4.740E+05
      1921    19200.0  8.897E+01  4.749E+05
      1922    19210.0  8.895E+01  4.758E+05
      1923    19220.0  8.925E+01  4.767E+05
      1924    19230.0  8.944E+01  4.776E+05
      1925    19240.0  8.957E+01  4.785E+05
      1926    19250.0  8.954E+01  4.794E+05
      1927    19260.0  8.967E+01  4.803E+05
      1928    19270.0  8.985E+01  4.812E+05
      1929    19280.0  8.979E+01  4.821E+05
      1930    19290.0  8.980E+01  4.830E+05
      1931    19300.0  9.020E+01  4.839E+05
      1932    19310.0  9.014E+01  4.848E+05
      1933    19320.0  9.023E+01  4.857E+05
      1934    19330.0  9.023E+01  4.866E+05
      1935    19340.0  9.044E+01  4.875E+05
      1936    19350.0  9.038E+01  4.884E+05
      1937    19360.0  9.058E+01  4.893E+05
      1938    19370.0  9.064E+01  4.902E+05
      1939    19380.0  9.083E+01  4.911E+05
      1940    19390.0  9.085E+01  4.920E+05
      1941    19400.0  9.101E+01  4.929E+05
      1942    19410.0  9.106E+01  4.938E+05
      1943    19420.0  9.103E+01  4.947E+05
      1944    19430.0  9.131E+01  4.956E+05
      1945    19440.0  9.155E+01  4.966E+05
      1946    19450.0  9.158E+01  4.975E+05
      1947    19460.0  9.160E+01  4.984E+05
      1948    19470.0  9.156E+01  4.993E+05
      1949    19480.0  9.208E+01  5.002E+05
      1950    19490.0  9.213E+01  5.011E+05
      1951    19500.0  9.214E+01  5.021E+05
      1952    19510.0  9.218E+01  5.030E+05
      1953    19520.0  9.239E+01  5.039E+05
      1954    19530.0  9.244E+01  5.048E+05
      1955    19540.0  9.271E+01  5.058E+05
      1956    19550.0  9.286E+01  5.067E+05
      1957    19560.0  9.291E+01  5.076E+05
      1958    19570.0  9.303E+01  5.086E+05
      1959    19580.0  9.314E+01  5.095E+05
      1960    19590.0  9.323E+01  5.104E+05
      1961    19600.0  9.321E+01  5.114E+05
      1962    19610.0  9.338E+01  5.123E+05
      1963    19620.0  9.346E+01  5.132E+05
      1964    19630.0  9.348E+01  5.142E+05
      1965    19640.0  9.351E+01  5.151E+05
      1966    19650.0  9.360E+01  5.160E+05
      1967    19660.0  9.370E+01  5.170E+05
      1968    19670.0  9.390E+01  5.179E+05
      1969    19680.0  9.389E+01  5.188E+05
      1970    19690.0  9.427E+01  5.198E+05
      1971    19700.0  9.445E+01  5.207E+05
      1972    19710.0  9.451E+01  5.217E+05
      1973    19720.0  9.464E+01  5.226E+05
      1974    19730.0  9.472E+01  5.236E+05
      1975    19740.0  9.490E+01  5.245E+05
      1976    19750.0  9.497E+01  5.255E+05
      1977    19760.0  9.509E+01  5.264E+05
      1978    19770.0  9.508E+01  5.274E+05
      1979    19780.0  9.539E+01  5.283E+05
      1980    19790.0  9.551E+01  5.293E+05
      1981    19800.0  9.574E+01  5.302E+05
      1982    19810.0  9.588E+01  5.312E+05
      1983    19820.0  9.590E+01  5.322E+05
      1984    19830.0  9.591E+01  5.331E+05
      1985    19840.0  9.612E+01  5.341E+05
      1986    19850.0  9.651E+01  5.350E+05
      1987    19860.0  9.660E+01  5.360E+05
      1988    19870.0  9.674E+01  5.370E+05
      1989    19880.0  9.686E+01  5.379E+05
      1990    19890.0  9.745E+01  5.389E+05
      1991    19900.0  9.741E+01  5.399E+05
      1992    19910.0  9.759E+01  5.409E+05
      1993    19920.0  9.771E+01  5.418E+05
      1994    19930.0  9.778E+01  5.428E+05
      1995    19940.0  9.794E+01  5.438E+05
      1996    19950.0  9.828E+01  5.448E+05
      1997    19960.0  9.860E+01  5.458E+05
      1998    19970.0  9.872E+01  5.468E+05
      1999    19980.0  9.874E+01  5.477E+05
      2000    19990.0  1.089E+02  5.488E+05
      2001    20000.0  1.030E+02  5.499E+05
      2002    20010.0  1.021E+02  5.509E+05
      2003    20020.0  1.016E+02  5.519E+05
      2004    20030.0  1.016E+02  5.529E+05
      2005    20040.0  1.014E+02  5.539E+05
      2006    20050.0  1.013E+02  5.549E+05
      2007    20060.0  1.013E+02  5.560E+05
      2008    20070.0  1.013E+02  5.570E+05
      2009    20080.0  1.016E+02  5.580E+05
      2010    20090.0  1.015E+02  5.590E+05
      2011    20100.0  1.017E+02  5.600E+05
      2012    20110.0  1.017E+02  5.610E+05
      2013    20120.0  1.017E+02  5.620E+05
      2014    20130.0  1.019E+02  5.631E+05
      2015    20140.0  1.021E+02  5.641E+05
      2016    20150.0  1.021E+02  5.651E+05
      2017    20160.0  1.021E+02  5.661E+05
      2018    20170.0  1.022E+02  5.672E+05
      2019    20180.0  1.021E+02  5.682E+05
      2020    20190.0  1.023E+02  5.692E+05
      2021    20200.0  1.024E+02  5.702E+05
      2022    20210.0  1.027E+02  5.712E+05
      2023    20220.0  1.029E+02  5.723E+05
      2024    20230.0  1.029E+02  5.733E+05
      2025    20240.0  1.030E+02  5.743E+05
      2026    20250.0  1.031E+02  5.754E+05
      2027    20260.0  1.032E+02  5.764E+05
      2028    20270.0  1.033E+02  5.774E+05
      2029    20280.0  1.034E+02  5.785E+05
      2030    20290.0  1.034E+02  5.795E+05
      2031    20300.0  1.035E+02  5.805E+05
      2032    20310.0  1.037E+02  5.816E+05
      2033    20320.0  1.038E+02  5.826E+05
      2034    20330.0  1.038E+02  5.836E+05
      2035    20340.0  1.039E+02  5.847E+05
      2036    20350.0  1.041E+02  5.857E+05
      2037    20360.0  1.043E+02  5.868E+05
      2038    20370.0  1.043E+02  5.878E+05
      2039    20380.0  1.045E+02  5.889E+05
      2040    20390.0  1.047E+02  5.899E+05
      2041    20400.0  1.048E+02  5.910E+05
      2042    20410.0  1.049E+02  5.920E+05
      2043    20420.0  1.049E+02  5.930E+05
      2044    20430.0  1.051E+02  5.941E+05
      2045    20440.0  1.053E+02  5.952E+05
      2046    20450.0  1.054E+02  5.962E+05
      2047    20460.0  1.053E+02  5.973E+05
      2048    20470.0  1.055E+02  5.983E+05
      2049    20480.0  1.058E+02  5.994E+05
      2050    20490.0  1.059E+02  6.004E+05
      2051    20500.0  1.060E+02  6.015E+05
      2052    20510.0  1.061E+02  6.026E+05
      2053    20520.0  1.063E+02  6.036E+05
      2054    20530.0  1.063E+02  6.047E+05
      2055    20540.0  1.065E+02  6.057E+05
      2056    20550.0  1.067E+02  6.068E+05
      2057    20560.0  1.070E+02  6.079E+05
      2058    20570.0  1.073E+02  6.090E+05
      2059    20580.0  1.073E+02  6.100E+05
      2060    20590.0  1.075E+02  6.111E+05
      2061    20600.0  1.076E+02  6.122E+05
      2062    20610.0  1.078E+02  6.133E+05
      2063    20620.0  1.084E+02  6.143E+05
      2064    20630.0  1.085E+02  6.154E+05
      2065    20640.0  1.087E+02  6.165E+05
      2066    20650.0  1.087E+02  6.176E+05
      2067    20660.0  1.089E+02  6.187E+05
      2068    20670.0  1.090E+02  6.198E+05
      2069    20680.0  1.096E+02  6.209E+05
      2070    20690.0  1.098E+02  6.220E+05
      2071    20700.0  1.098E+02  6.231E+05
      2072    20710.0  1.100E+02  6.242E+05
      2073    20720.0  1.101E+02  6.253E+05
      2074    20730.0  1.102E+02  6.264E+05
      2075    20740.0  1.102E+02  6.275E+05
      2076    20750.0  1.103E+02  6.286E+05
      2077    20760.0  1.105E+02  6.297E+05
      2078    20770.0  1.106E+02  6.308E+05
      2079    20780.0  1.107E+02  6.319E+05
      2080    20790.0  1.109E+02  6.330E+05
      2081    20800.0  1.113E+02  6.341E+05
      2082    20810.0  1.112E+02  6.352E+05
      2083    20820.0  1.114E+02  6.363E+05
      2084    20830.0  1.114E+02  6.375E+05
      2085    20840.0  1.118E+02  6.386E+05
      2086    20850.0  1.119E+02  6.397E+05
      2087    20860.0  1.121E+02  6.408E+05
      2088    20870.0  1.122E+02  6.419E+05
      2089    20880.0  1.122E+02  6.431E+05
      2090    20890.0  1.123E+02  6.442E+05
      2091    20900.0  1.125E+02  6.453E+05
      2092    20910.0  1.124E+02  6.464E+05
      2093    20920.0  1.125E+02  6.476E+05
      2094    20930.0  1.127E+02  6.487E+05
      2095    20940.0  1.127E+02  6.498E+05
      2096    20950.0  1.127E+02  6.509E+05
      2097    20960.0  1.131E+02  6.521E+05
      2098    20970.0  1.235E+02  6.533E+05
      2099    20980.0  1.177E+02  6.545E+05
      2100    20990.0  1.168E+02  6.556E+05
      2101    21000.0  1.170E+02  6.568E+05
      2102    21010.0  1.167E+02  6.580E+05
      2103    21020.0  1.165E+02  6.592E+05
      2104    21030.0  1.166E+02  6.603E+05
      2105    21040.0  1.168E+02  6.615E+05
      2106    21050.0  1.168E+02  6.627E+05
      2107    21060.0  1.167E+02  6.638E+05
      2108    21070.0  1.168E+02  6.650E+05
      2109    21080.0  1.171E+02  6.662E+05
      2110    21090.0  1.171E+02  6.673E+05
      2111    21100.0  1.172E+02  6.685E+05
      2112    21110.0  1.173E+02  6.697E+05
      2113    21120.0  1.173E+02  6.708E+05
      2114    21130.0  1.173E+02  6.720E+05
      2115    21140.0  1.173E+02  6.732E+05
      2116    21150.0  1.174E+02  6.744E+05
      2117    21160.0  1.174E+02  6.755E+05
      2118    21170.0  1.174E+02  6.767E+05
      2119    21180.0  1.174E+02  6.779E+05
      2120    21190.0  1.174E+02  6.791E+05
      2121    21200.0  1.177E+02  6.802E+05
      2122    21210.0  1.177E+02  6.814E+05
      2123    21220.0  1.178E+02  6.826E+05
      2124    21230.0  1.180E+02  6.838E+05
      2125    21240.0  1.181E+02  6.850E+05
      2126    21250.0  1.182E+02  6.861E+05
      2127    21260.0  1.187E+02  6.873E+05
      2128    21270.0  1.188E+02  6.885E+05
      2129    21280.0  1.189E+02  6.897E+05
      2130    21290.0  1.193E+02  6.909E+05
      2131    21300.0  1.194E+02  6.921E+05
      2132    21310.0  1.195E+02  6.933E+05
      2133    21320.0  1.196E+02  6.945E+05
      2134    21330.0  1.198E+02  6.957E+05
      2135    21340.0  1.199E+02  6.969E+05
      2136    21350.0  1.200E+02  6.981E+05
      2137    21360.0  1.202E+02  6.993E+05
      2138    21370.0  1.203E+02  7.005E+05
      2139    21380.0  1.206E+02  7.017E+05
      2140    21390.0  1.208E+02  7.029E+05
      2141    21400.0  1.212E+02  7.041E+05
      2142    21410.0  1.213E+02  7.053E+05
      2143    21420.0  1.214E+02  7.065E+05
      2144    21430.0  1.216E+02  7.078E+05
      2145    21440.0  1.217E+02  7.090E+05
      2146    21450.0  1.220E+02  7.102E+05
      2147    21460.0  1.220E+02  7.114E+05
      2148    21470.0  1.222E+02  7.126E+05
      2149    21480.0  1.223E+02  7.139E+05
      2150    21490.0  1.225E+02  7.151E+05
      2151    21500.0  1.225E+02  7.163E+05
      2152    21510.0  1.228E+02  7.175E+05
      2153    21520.0  1.228E+02  7.188E+05
      2154    21530.0  1.229E+02  7.200E+05
      2155    21540.0  1.233E+02  7.212E+05
      2156    21550.0  1.234E+02  7.225E+05
      2157    21560.0  1.236E+02  7.237E+05
      2158    21570.0  1.241E+02  7.249E+05
      2159    21580.0  1.243E+02  7.262E+05
      2160    21590.0  1.245E+02  7.274E+05
      2161    21600.0  1.246E+02  7.287E+05
      2162    21610.0  1.247E+02  7.299E+05
      2163    21620.0  1.248E+02  7.312E+05
      2164    21630.0  1.249E+02  7.324E+05
      2165    21640.0  1.252E+02  7.337E+05
      2166    21650.0  1.255E+02  7.349E+05
      2167    21660.0  1.256E+02  7.362E+05
      2168    21670.0  1.257E+02  7.374E+05
      2169    21680.0  1.258E+02  7.387E+05
      2170    21690.0  1.258E+02  7.399E+05
      2171    21700.0  1.258E+02  7.412E+05
      2172    21710.0  1.259E+02  7.425E+05
      2173    21720.0  1.259E+02  7.437E+05
      2174    21730.0  1.259E+02  7.450E+05
      2175    21740.0  1.263E+02  7.462E+05
      2176    21750.0  1.263E+02  7.475E+05
      2177    21760.0  1.263E+02  7.488E+05
      2178    21770.0  1.265E+02  7.500E+05
      2179    21780.0  1.264E+02  7.513E+05
      2180    21790.0  1.267E+02  7.526E+05
      2181    21800.0  1.269E+02  7.538E+05
      2182    21810.0  1.273E+02  7.551E+05
      2183    21820.0  1.276E+02  7.564E+05
      2184    21830.0  1.276E+02  7.577E+05
      2185    21840.0  1.278E+02  7.589E+05
      2186    21850.0  1.281E+02  7.602E+05
      2187    21860.0  1.284E+02  7.615E+05
      2188    21870.0  1.286E+02  7.628E+05
      2189    21880.0  1.290E+02  7.641E+05
      2190    21890.0  1.291E+02  7.654E+05
      2191    21900.0  1.291E+02  7.667E+05
      2192    21910.0  1.293E+02  7.680E+05
      2193    21920.0  1.295E+02  7.693E+05
      2194    21930.0  1.296E+02  7.705E+05
      2195    21940.0  1.300E+02  7.718E+05
      2196    21950.0  1.300E+02  7.731E+05
      2197    21960.0  1.302E+02  7.745E+05
      2198    21970.0  1.408E+02  7.759E+05
      2199    21980.0  1.348E+02  7.772E+05
      2200    21990.0  1.341E+02  7.785E+05
      2201    22000.0  1.340E+02  7.799E+05
      2202    22010.0  1.338E+02  7.812E+05
      2203    22020.0  1.336E+02  7.826E+05
      2204    22030.0  1.337E+02  7.839E+05
      2205    22040.0  1.336E+02  7.852E+05
      2206    22050.0  1.337E+02  7.866E+05
      2207    22060.0  1.338E+02  7.879E+05
      2208    22070.0  1.338E+02  7.892E+05
      2209    22080.0  1.344E+02  7.906E+05
      2210    22090.0  1.344E+02  7.919E+05
      2211    22100.0  1.345E+02  7.933E+05
      2212    22110.0  1.346E+02  7.946E+05
      2213    22120.0  1.348E+02  7.960E+05
      2214    22130.0  1.349E+02  7.973E+05
      2215    22140.0  1.349E+02  7.987E+05
      2216    22150.0  1.350E+02  8.000E+05
      2217    22160.0  1.350E+02  8.014E+05
      2218    22170.0  1.352E+02  8.027E+05
      2219    22180.0  1.352E+02  8.041E+05
      2220    22190.0  1.357E+02  8.054E+05
      2221    22200.0  1.359E+02  8.068E+05
      2222    22210.0  1.359E+02  8.082E+05
      2223    22220.0  1.362E+02  8.095E+05
      2224    22230.0  1.363E+02  8.109E+05
      2225    22240.0  1.365E+02  8.122E+05
      2226    22250.0  1.365E+02  8.136E+05
      2227    22260.0  1.368E+02  8.150E+05
      2228    22270.0  1.369E+02  8.163E+05
      2229    22280.0  1.370E+02  8.177E+05
      2230    22290.0  1.372E+02  8.191E+05
      2231    22300.0  1.374E+02  8.205E+05
      2232    22310.0  1.376E+02  8.218E+05
      2233    22320.0  1.377E+02  8.232E+05
      2234    22330.0  1.378E+02  8.246E+05
      2235    22340.0  1.378E+02  8.260E+05
      2236    22350.0  1.378E+02  8.273E+05
      2237    22360.0  1.379E+02  8.287E+05
      2238    22370.0  1.379E+02  8.301E+05
      2239    22380.0  1.380E+02  8.315E+05
      2240    22390.0  1.381E+02  8.329E+05
      2241    22400.0  1.383E+02  8.342E+05
      2242    22410.0  1.383E+02  8.356E+05
      2243    22420.0  1.386E+02  8.370E+05
      2244    22430.0  1.388E+02  8.384E+05
      2245    22440.0  1.390E+02  8.398E+05
      2246    22450.0  1.391E+02  8.412E+05
      2247    22460.0  1.392E+02  8.426E+05
      2248    22470.0  1.393E+02  8.440E+05
      2249    22480.0  1.395E+02  8.454E+05
      2250    22490.0  1.398E+02  8.468E+05
      2251    22500.0  1.401E+02  8.482E+05
      2252    22510.0  1.402E+02  8.496E+05
      2253    22520.0  1.403E+02  8.510E+05
      2254    22530.0  1.407E+02  8.524E+05
      2255    22540.0  1.409E+02  8.538E+05
      2256    22550.0  1.413E+02  8.552E+05
      2257    22560.0  1.417E+02  8.566E+05
      2258    22570.0  1.417E+02  8.580E+05
      2259    22580.0  1.419E+02  8.595E+05
      2260    22590.0  1.422E+02  8.609E+05
      2261    22600.0  1.425E+02  8.623E+05
      2262    22610.0  1.427E+02  8.637E+05
      2263    22620.0  1.428E+02  8.652E+05
      2264    22630.0  1.428E+02  8.666E+05
      2265    22640.0  1.428E+02  8.680E+05
      2266    22650.0  1.431E+02  8.694E+05
      2267    22660.0  1.433E+02  8.709E+05
      2268    22670.0  1.435E+02  8.723E+05
      2269    22680.0  1.437E+02  8.737E+05
      2270    22690.0  1.438E+02  8.752E+05
      2271    22700.0  1.440E+02  8.766E+05
      2272    22710.0  1.443E+02  8.781E+05
      2273    22720.0  1.444E+02  8.795E+05
      2274    22730.0  1.444E+02  8.810E+05
      2275    22740.0  1.446E+02  8.824E+05
      2276    22750.0  1.448E+02  8.838E+05
      2277    22760.0  1.448E+02  8.853E+05
      2278    22770.0  1.450E+02  8.867E+05
      2279    22780.0  1.456E+02  8.882E+05
      2280    22790.0  1.461E+02  8.897E+05
      2281    22800.0  1.465E+02  8.911E+05
      2282    22810.0  1.466E+02  8.926E+05
      2283    22820.0  1.469E+02  8.941E+05
      2284    22830.0  1.472E+02  8.955E+05
      2285    22840.0  1.473E+02  8.970E+05
      2286    22850.0  1.474E+02  8.985E+05
      2287    22860.0  1.477E+02  9.000E+05
      2288    22870.0  1.480E+02  9.014E+05
      2289    22880.0  1.482E+02  9.029E+05
      2290    22890.0  1.486E+02  9.044E+05
      2291    22900.0  1.486E+02  9.059E+05
      2292    22910.0  1.488E+02  9.074E+05
      2293    22920.0  1.489E+02  9.089E+05
      2294    22930.0  1.489E+02  9.104E+05
      2295    22940.0  1.491E+02  9.118E+05
      2296    22950.0  1.494E+02  9.133E+05
      2297    22960.0  1.494E+02  9.148E+05
      2298    22970.0  1.495E+02  9.163E+05
      2299    22980.0  1.498E+02  9.178E+05
      2300    22990.0  1.607E+02  9.194E+05
      2301    23000.0  1.548E+02  9.210E+05
      2302    23010.0  1.538E+02  9.225E+05
      2303    23020.0  1.534E+02  9.241E+05
      2304    23030.0  1.531E+02  9.256E+05
      2305    23040.0  1.529E+02  9.271E+05
      2306    23050.0  1.531E+02  9.286E+05
      2307    23060.0  1.529E+02  9.302E+05
      2308    23070.0  1.528E+02  9.317E+05
      2309    23080.0  1.531E+02  9.332E+05
      2310    23090.0  1.530E+02  9.348E+05
      2311    23100.0  1.531E+02  9.363E+05
      2312    23110.0  1.532E+02  9.378E+05
      2313    23120.0  1.533E+02  9.394E+05
      2314    23130.0  1.533E+02  9.409E+05
      2315    23140.0  1.536E+02  9.424E+05
      2316    23150.0  1.537E+02  9.440E+05
      2317    23160.0  1.538E+02  9.455E+05
      2318    23170.0  1.537E+02  9.470E+05
      2319    23180.0  1.539E+02  9.486E+05
      2320    23190.0  1.542E+02  9.501E+05
      2321    23200.0  1.544E+02  9.517E+05
      2322    23210.0  1.544E+02  9.532E+05
      2323    23220.0  1.547E+02  9.548E+05
      2324    23230.0  1.549E+02  9.563E+05
      2325    23240.0  1.550E+02  9.579E+05
      2326    23250.0  1.549E+02  9.594E+05
      2327    23260.0  1.550E+02  9.610E+05
      2328    23270.0  1.550E+02  9.625E+05
      2329    23280.0  1.550E+02  9.641E+05
      2330    23290.0  1.554E+02  9.656E+05
      2331    23300.0  1.556E+02  9.672E+05
      2332    23310.0  1.559E+02  9.687E+05
      2333    23320.0  1.562E+02  9.703E+05
      2334    23330.0  1.568E+02  9.719E+05
      2335    23340.0  1.569E+02  9.734E+05
      2336    23350.0  1.572E+02  9.750E+05
      2337    23360.0  1.574E+02  9.766E+05
      2338    23370.0  1.577E+02  9.781E+05
      2339    23380.0  1.579E+02  9.797E+05
      2340    23390.0  1.580E+02  9.813E+05
      2341    23400.0  1.582E+02  9.829E+05
      2342    23410.0  1.584E+02  9.845E+05
      2343    23420.0  1.585E+02  9.861E+05
      2344    23430.0  1.587E+02  9.876E+05
      2345    23440.0  1.591E+02  9.892E+05
      2346    23450.0  1.592E+02  9.908E+05
      2347    23460.0  1.593E+02  9.924E+05
      2348    23470.0  1.594E+02  9.940E+05
      2349    23480.0  1.597E+02  9.956E+05
      2350    23490.0  1.601E+02  9.972E+05
      2351    23500.0  1.601E+02  9.988E+05
      2352    23510.0  1.605E+02  1.000E+06
      2353    23520.0  1.605E+02  1.002E+06
      2354    23530.0  1.606E+02  1.004E+06
      2355    23540.0  1.610E+02  1.005E+06
      2356    23550.0  1.617E+02  1.007E+06
      2357    23560.0  1.620E+02  1.008E+06
      2358    23570.0  1.622E+02  1.010E+06
      2359    23580.0  1.622E+02  1.012E+06
      2360    23590.0  1.626E+02  1.013E+06
      2361    23600.0  1.628E+02  1.015E+06
      2362    23610.0  1.630E+02  1.017E+06
      2363    23620.0  1.635E+02  1.018E+06
      2364    23630.0  1.638E+02  1.020E+06
      2365    23640.0  1.638E+02  1.022E+06
      2366    23650.0  1.638E+02  1.023E+06
      2367    23660.0  1.640E+02  1.025E+06
      2368    23670.0  1.641E+02  1.026E+06
      2369    23680.0  1.645E+02  1.028E+06
      2370    23690.0  1.645E+02  1.030E+06
      2371    23700.0  1.647E+02  1.031E+06
      2372    23710.0  1.650E+02  1.033E+06
      2373    23720.0  1.652E+02  1.035E+06
      2374    23730.0  1.654E+02  1.036E+06
      2375    23740.0  1.661E+02  1.038E+06
      2376    23750.0  1.661E+02  1.040E+06
      2377    23760.0  1.662E+02  1.041E+06
      2378    23770.0  1.664E+02  1.043E+06
      2379    23780.0  1.666E+02  1.045E+06
      2380    23790.0  1.667E+02  1.046E+06
      2381    23800.0  1.669E+02  1.048E+06
      2382    23810.0  1.669E+02  1.050E+06
      2383    23820.0  1.671E+02  1.051E+06
      2384    23830.0  1.671E+02  1.053E+06
      2385    23840.0  1.675E+02  1.055E+06
      2386    23850.0  1.676E+02  1.056E+06
      2387    23860.0  1.680E+02  1.058E+06
      2388    23870.0  1.682E+02  1.060E+06
      2389    23880.0  1.683E+02  1.061E+06
      2390    23890.0  1.685E+02  1.063E+06
      2391    23900.0  1.685E+02  1.065E+06
      2392    23910.0  1.687E+02  1.066E+06
      2393    23920.0  1.688E+02  1.068E+06
      2394    23930.0  1.690E+02  1.070E+06
      2395    23940.0  1.693E+02  1.072E+06
      2396    23950.0  1.694E+02  1.073E+06
      2397    23960.0  1.697E+02  1.075E+06
      2398    23970.0  1.698E+02  1.077E+06
      2399    23980.0  1.698E+02  1.078E+06
      2400    23990.0  1.698E+02  1.080E+06
      2401    24000.0  1.701E+02  1.082E+06
      2402    24010.0  1.704E+02  1.083E+06
      2403    24020.0  1.706E+02  1.085E+06
      2404    24030.0  1.819E+02  1.087E+06
      2405    24040.0  1.757E+02  1.089E+06
      2406    24050.0  1.748E+02  1.090E+06
      2407    24060.0  1.743E+02  1.092E+06
      2408    24070.0  1.743E+02  1.094E+06
      2409    24080.0  1.742E+02  1.096E+06
      2410    24090.0  1.745E+02  1.097E+06
      2411    24100.0  1.746E+02  1.099E+06
      2412    24110.0  1.746E+02  1.101E+06
      2413    24120.0  1.754E+02  1.103E+06
      2414    24130.0  1.753E+02  1.104E+06
      2415    24140.0  1.754E+02  1.106E+06
      2416    24150.0  1.753E+02  1.108E+06
      2417    24160.0  1.753E+02  1.110E+06
      2418    24170.0  1.754E+02  1.111E+06
      2419    24180.0  1.755E+02  1.113E+06
      2420    24190.0  1.756E+02  1.115E+06
      2421    24200.0  1.757E+02  1.117E+06
      2422    24210.0  1.763E+02  1.118E+06
      2423    24220.0  1.766E+02  1.120E+06
      2424    24230.0  1.769E+02  1.122E+06
      2425    24240.0  1.770E+02  1.124E+06
      2426    24250.0  1.775E+02  1.126E+06
      2427    24260.0  1.777E+02  1.127E+06
      2428    24270.0  1.780E+02  1.129E+06
      2429    24280.0  1.783E+02  1.131E+06
      2430    24290.0  1.784E+02  1.133E+06
      2431    24300.0  1.785E+02  1.134E+06
      2432    24310.0  1.786E+02  1.136E+06
      2433    24320.0  1.787E+02  1.138E+06
      2434    24330.0  1.789E+02  1.140E+06
      2435    24340.0  1.789E+02  1.142E+06
      2436    24350.0  1.790E+02  1.143E+06
      2437    24360.0  1.792E+02  1.145E+06
      2438    24370.0  1.795E+02  1.147E+06
      2439    24380.0  1.796E+02  1.149E+06
      2440    24390.0  1.800E+02  1.151E+06
      2441    24400.0  1.803E+02  1.152E+06
      2442    24410.0  1.806E+02  1.154E+06
      2443    24420.0  1.807E+02  1.156E+06
      2444    24430.0  1.810E+02  1.158E+06
      2445    24440.0  1.810E+02  1.160E+06
      2446    24450.0  1.813E+02  1.161E+06
      2447    24460.0  1.816E+02  1.163E+06
      2448    24470.0  1.820E+02  1.165E+06
      2449    24480.0  1.820E+02  1.167E+06
      2450    24490.0  1.821E+02  1.169E+06
      2451    24500.0  1.821E+02  1.171E+06
      2452    24510.0  1.825E+02  1.172E+06
      2453    24520.0  1.827E+02  1.174E+06
      2454    24530.0  1.830E+02  1.176E+06
      2455    24540.0  1.831E+02  1.178E+06
      2456    24550.0  1.835E+02  1.180E+06
      2457    24560.0  1.838E+02  1.181E+06
      2458    24570.0  1.842E+02  1.183E+06
      2459    24580.0  1.842E+02  1.185E+06
      2460    24590.0  1.844E+02  1.187E+06
      2461    24600.0  1.847E+02  1.189E+06
      2462    24610.0  1.848E+02  1.191E+06
      2463    24620.0  1.853E+02  1.193E+06
      2464    24630.0  1.853E+02  1.194E+06
      2465    24640.0  1.854E+02  1.196E+06
      2466    24650.0  1.856E+02  1.198E+06
      2467    24660.0  1.860E+02  1.200E+06
      2468    24670.0  1.861E+02  1.202E+06
      2469    24680.0  1.862E+02  1.204E+06
      2470    24690.0  1.863E+02  1.206E+06
      2471    24700.0  1.866E+02  1.207E+06
      2472    24710.0  1.866E+02  1.209E+06
      2473    24720.0  1.871E+02  1.211E+06
      2474    24730.0  1.874E+02  1.213E+06
      2475    24740.0  1.875E+02  1.215E+06
      2476    24750.0  1.878E+02  1.217E+06
      2477    24760.0  1.880E+02  1.219E+06
      2478    24770.0  1.884E+02  1.221E+06
      2479    24780.0  1.886E+02  1.222E+06
      2480    24790.0  1.891E+02  1.224E+06
      2481    24800.0  1.894E+02  1.226E+06
      2482    24810.0  1.895E+02  1.228E+06
      2483    24820.0  1.897E+02  1.230E+06
      2484    24830.0  1.901E+02  1.232E+06
      2485    24840.0  1.906E+02  1.234E+06
      2486    24850.0  1.907E+02  1.236E+06
      2487    24860.0  1.912E+02  1.238E+06
      2488    24870.0  1.913E+02  1.240E+06
      2489    24880.0  1.915E+02  1.241E+06
      2490    24890.0  1.916E+02  1.243E+06
      2491    24900.0  1.918E+02  1.245E+06
      2492    24910.0  1.920E+02  1.247E+06
      2493    24920.0  1.920E+02  1.249E+06
      2494    24930.0  1.923E+02  1.251E+06
      2495    24940.0  1.925E+02  1.253E+06
      2496    24950.0  1.928E+02  1.255E+06
      2497    24960.0  1.929E+02  1.257E+06
      2498    24970.0  1.932E+02  1.259E+06
      2499    24980.0  1.933E+02  1.261E+06
      2500    24990.0  1.937E+02  1.263E+06
      2501    25000.0  1.940E+02  1.265E+06
      2502    25010.0  1.942E+02  1.267E+06
      2503    25020.0  1.944E+02  1.268E+06
      2504    25030.0  1.944E+02  1.270E+06
      2505    25040.0  1.946E+02  1.272E+06
      2506    25050.0  1.947E+02  1.274E+06
      2507    25060.0  1.948E+02  1.276E+06
      2508    25070.0  1.952E+02  1.278E+06
      2509    25080.0  1.954E+02  1.280E+06
      2510    25090.0  1.956E+02  1.282E+06
      2511    25100.0  2.070E+02  1.284E+06
      2512    25110.0  2.009E+02  1.286E+06
      2513    25120.0  2.002E+02  1.288E+06
      2514    25130.0  1.998E+02  1.290E+06
      2515    25140.0  1.995E+02  1.292E+06
      2516    25150.0  1.993E+02  1.294E+06
      2517    25160.0  1.993E+02  1.296E+06
      2518    25170.0  1.993E+02  1.298E+06
      2519    25180.0  1.996E+02  1.300E+06
      2520    25190.0  1.999E+02  1.302E+06
      2521    25200.0  2.001E+02  1.304E+06
      2522    25210.0  2.003E+02  1.306E+06
      2523    25220.0  2.005E+02  1.308E+06
      2524    25230.0  2.009E+02  1.310E+06
      2525    25240.0  2.010E+02  1.312E+06
      2526    25250.0  2.010E+02  1.314E+06
      2527    25260.0  2.011E+02  1.316E+06
      2528    25270.0  2.013E+02  1.318E+06
      2529    25280.0  2.016E+02  1.320E+06
      2530    25290.0  2.018E+02  1.322E+06
      2531    25300.0  2.020E+02  1.324E+06
      2532    25310.0  2.024E+02  1.326E+06
      2533    25320.0  2.026E+02  1.328E+06
      2534    25330.0  2.031E+02  1.330E+06
      2535    25340.0  2.033E+02  1.332E+06
      2536    25350.0  2.036E+02  1.334E+06
      2537    25360.0  2.036E+02  1.336E+06
      2538    25370.0  2.038E+02  1.339E+06
      2539    25380.0  2.040E+02  1.341E+06
      2540    25390.0  2.041E+02  1.343E+06
      2541    25400.0  2.042E+02  1.345E+06
      2542    25410.0  2.045E+02  1.347E+06
      2543    25420.0  2.048E+02  1.349E+06
      2544    25430.0  2.048E+02  1.351E+06
      2545    25440.0  2.049E+02  1.353E+06
      2546    25450.0  2.050E+02  1.355E+06
      2547    25460.0  2.051E+02  1.357E+06
      2548    25470.0  2.055E+02  1.359E+06
      2549    25480.0  2.057E+02  1.361E+06
      2550    25490.0  2.061E+02  1.363E+06
      2551    25500.0  2.061E+02  1.365E+06
      2552    25510.0  2.065E+02  1.367E+06
      2553    25520.0  2.067E+02  1.369E+06
      2554    25530.0  2.071E+02  1.371E+06
      2555    25540.0  2.074E+02  1.373E+06
      2556    25550.0  2.076E+02  1.376E+06
      2557    25560.0  2.078E+02  1.378E+06
      2558    25570.0  2.079E+02  1.380E+06
      2559    25580.0  2.084E+02  1.382E+06
      2560    25590.0  2.086E+02  1.384E+06
      2561    25600.0  2.091E+02  1.386E+06
      2562    25610.0  2.097E+02  1.388E+06
      2563    25620.0  2.099E+02  1.390E+06
      2564    25630.0  2.103E+02  1.392E+06
      2565    25640.0  2.108E+02  1.394E+06
      2566    25650.0  2.111E+02  1.396E+06
      2567    25660.0  2.112E+02  1.399E+06
      2568    25670.0  2.114E+02  1.401E+06
      2569    25680.0  2.116E+02  1.403E+06
      2570    25690.0  2.119E+02  1.405E+06
      2571    25700.0  2.122E+02  1.407E+06
      2572    25710.0  2.124E+02  1.409E+06
      2573    25720.0  2.128E+02  1.411E+06
      2574    25730.0  2.129E+02  1.413E+06
      2575    25740.0  2.134E+02  1.416E+06
      2576    25750.0  2.135E+02  1.418E+06
      2577    25760.0  2.135E+02  1.420E+06
      2578    25770.0  2.138E+02  1.422E+06
      2579    25780.0  2.138E+02  1.424E+06
      2580    25790.0  2.143E+02  1.426E+06
      2581    25800.0  2.144E+02  1.428E+06
      2582    25810.0  2.146E+02  1.431E+06
      2583    25820.0  2.147E+02  1.433E+06
      2584    25830.0  2.148E+02  1.435E+06
      2585    25840.0  2.149E+02  1.437E+06
      2586    25850.0  2.152E+02  1.439E+06
      2587    25860.0  2.155E+02  1.441E+06
      2588    25870.0  2.156E+02  1.443E+06
      2589    25880.0  2.158E+02  1.446E+06
      2590    25890.0  2.159E+02  1.448E+06
      2591    25900.0  2.162E+02  1.450E+06
      2592    25910.0  2.166E+02  1.452E+06
      2593    25920.0  2.168E+02  1.454E+06
      2594    25930.0  2.169E+02  1.456E+06
      2595    25940.0  2.170E+02  1.459E+06
      2596    25950.0  2.174E+02  1.461E+06
      2597    25960.0  2.175E+02  1.463E+06
      2598    25970.0  2.178E+02  1.465E+06
      2599    25980.0  2.179E+02  1.467E+06
      2600    25990.0  2.182E+02  1.469E+06
      2601    26000.0  2.185E+02  1.472E+06
      2602    26010.0  2.188E+02  1.474E+06
      2603    26020.0  2.190E+02  1.476E+06
      2604    26030.0  2.192E+02  1.478E+06
      2605    26040.0  2.193E+02  1.480E+06
      2606    26050.0  2.192E+02  1.483E+06
      2607    26060.0  2.196E+02  1.485E+06
      2608    26070.0  2.202E+02  1.487E+06
      2609    26080.0  2.204E+02  1.489E+06
      2610    26090.0  2.207E+02  1.491E+06
      2611    26100.0  2.208E+02  1.494E+06
      2612    26110.0  2.210E+02  1.496E+06
      2613    26120.0  2.214E+02  1.498E+06
      2614    26130.0  2.215E+02  1.500E+06
      2615    26140.0  2.222E+02  1.503E+06
      2616    26150.0  2.224E+02  1.505E+06
      2617    26160.0  2.230E+02  1.507E+06
      2618    26170.0  2.235E+02  1.509E+06
      2619    26180.0  2.241E+02  1.511E+06
      2620    26190.0  2.360E+02  1.514E+06
      2621    26200.0  2.296E+02  1.516E+06
      2622    26210.0  2.285E+02  1.518E+06
      2623    26220.0  2.283E+02  1.521E+06
      2624    26230.0  2.285E+02  1.523E+06
      2625    26240.0  2.284E+02  1.525E+06
      2626    26250.0  2.283E+02  1.528E+06
      2627    26260.0  2.287E+02  1.530E+06
      2628    26270.0  2.289E+02  1.532E+06
      2629    26280.0  2.290E+02  1.534E+06
      2630    26290.0  2.294E+02  1.537E+06
      2631    26300.0  2.293E+02  1.539E+06
      2632    26310.0  2.294E+02  1.541E+06
      2633    26320.0  2.294E+02  1.544E+06
      2634    26330.0  2.295E+02  1.546E+06
      2635    26340.0  2.297E+02  1.548E+06
      2636    26350.0  2.299E+02  1.550E+06
      2637    26360.0  2.302E+02  1.553E+06
      2638    26370.0  2.306E+02  1.555E+06
      2639    26380.0  2.307E+02  1.557E+06
      2640    26390.0  2.309E+02  1.560E+06
      2641    26400.0  2.312E+02  1.562E+06
      2642    26410.0  2.313E+02  1.564E+06
      2643    26420.0  2.315E+02  1.567E+06
      2644    26430.0  2.316E+02  1.569E+06
      2645    26440.0  2.318E+02  1.571E+06
      2646    26450.0  2.325E+02  1.574E+06
      2647    26460.0  2.326E+02  1.576E+06
      2648    26470.0  2.329E+02  1.578E+06
      2649    26480.0  2.332E+02  1.581E+06
      2650    26490.0  2.334E+02  1.583E+06
      2651    26500.0  2.337E+02  1.585E+06
      2652    26510.0  2.338E+02  1.588E+06
      2653    26520.0  2.339E+02  1.590E+06
      2654    26530.0  2.341E+02  1.592E+06
      2655    26540.0  2.344E+02  1.595E+06
      2656    26550.0  2.345E+02  1.597E+06
      2657    26560.0  2.346E+02  1.599E+06
      2658    26570.0  2.347E+02  1.602E+06
      2659    26580.0  2.348E+02  1.604E+06
      2660    26590.0  2.348E+02  1.606E+06
      2661    26600.0  2.352E+02  1.609E+06
      2662    26610.0  2.353E+02  1.611E+06
      2663    26620.0  2.356E+02  1.613E+06
      2664    26630.0  2.359E+02  1.616E+06
      2665    26640.0  2.362E+02  1.618E+06
      2666    26650.0  2.367E+02  1.620E+06
      2667    26660.0  2.368E+02  1.623E+06
      2668    26670.0  2.372E+02  1.625E+06
      2669    26680.0  2.382E+02  1.628E+06
      2670    26690.0  2.384E+02  1.630E+06
      2671    26700.0  2.385E+02  1.632E+06
      2672    26710.0  2.386E+02  1.635E+06
      2673    26720.0  2.390E+02  1.637E+06
      2674    26730.0  2.391E+02  1.640E+06
      2675    26740.0  2.400E+02  1.642E+06
      2676    26750.0  2.403E+02  1.644E+06
      2677    26760.0  2.405E+02  1.647E+06
      2678    26770.0  2.408E+02  1.649E+06
      2679    26780.0  2.413E+02  1.652E+06
      2680    26790.0  2.415E+02  1.654E+06
      2681    26800.0  2.416E+02  1.656E+06
      2682    26810.0  2.418E+02  1.659E+06
      2683    26820.0  2.420E+02  1.661E+06
      2684    26830.0  2.421E+02  1.664E+06
      2685    26840.0  2.425E+02  1.666E+06
      2686    26850.0  2.431E+02  1.668E+06
      2687    26860.0  2.433E+02  1.671E+06
      2688    26870.0  2.434E+02  1.673E+06
      2689    26880.0  2.437E+02  1.676E+06
      2690    26890.0  2.439E+02  1.678E+06
      2691    26900.0  2.441E+02  1.681E+06
      2692    26910.0  2.442E+02  1.683E+06
      2693    26920.0  2.445E+02  1.686E+06
      2694    26930.0  2.449E+02  1.688E+06
      2695    26940.0  2.451E+02  1.690E+06
      2696    26950.0  2.457E+02  1.693E+06
      2697    26960.0  2.460E+02  1.695E+06
      2698    26970.0  2.462E+02  1.698E+06
      2699    26980.0  2.465E+02  1.700E+06
      2700    26990.0  2.468E+02  1.703E+06
      2701    27000.0  2.472E+02  1.705E+06
      2702    27010.0  2.474E+02  1.708E+06
      2703    27020.0  2.476E+02  1.710E+06
      2704    27030.0  2.478E+02  1.713E+06
      2705    27040.0  2.482E+02  1.715E+06
      2706    27050.0  2.487E+02  1.718E+06
      2707    27060.0  2.490E+02  1.720E+06
      2708    27070.0  2.494E+02  1.723E+06
      2709    27080.0  2.497E+02  1.725E+06
      2710    27090.0  2.501E+02  1.728E+06
      2711    27100.0  2.502E+02  1.730E+06
      2712    27110.0  2.504E+02  1.733E+06
      2713    27120.0  2.505E+02  1.735E+06
      2714    27130.0  2.506E+02  1.738E+06
      2715    27140.0  2.512E+02  1.740E+06
      2716    27150.0  2.514E+02  1.743E+06
      2717    27160.0  2.517E+02  1.745E+06
      2718    27170.0  2.520E+02  1.748E+06
      2719    27180.0  2.528E+02  1.750E+06
      2720    27190.0  2.531E+02  1.753E+06
      2721    27200.0  2.532E+02  1.755E+06
      2722    27210.0  2.534E+02  1.758E+06
      2723    27220.0  2.537E+02  1.760E+06
      2724    27230.0  2.539E+02  1.763E+06
      2725    27240.0  2.541E+02  1.765E+06
      2726    27250.0  2.542E+02  1.768E+06
      2727    27260.0  2.545E+02  1.771E+06
      2728    27270.0  2.546E+02  1.773E+06
      2729    27280.0  2.549E+02  1.776E+06
      2730    27290.0  2.553E+02  1.778E+06
      2731    27300.0  2.559E+02  1.781E+06
      2732    27310.0  2.676E+02  1.783E+06
      2733    27320.0  2.611E+02  1.786E+06
      2734    27330.0  2.601E+02  1.789E+06
      2735    27340.0  2.596E+02  1.791E+06
      2736    27350.0  2.595E+02  1.794E+06
      2737    27360.0  2.594E+02  1.796E+06
      2738    27370.0  2.594E+02  1.799E+06
      2739    27380.0  2.594E+02  1.802E+06
      2740    27390.0  2.595E+02  1.804E+06
      2741    27400.0  2.598E+02  1.807E+06
      2742    27410.0  2.602E+02  1.809E+06
      2743    27420.0  2.602E+02  1.812E+06
      2744    27430.0  2.606E+02  1.815E+06
      2745    27440.0  2.609E+02  1.817E+06
      2746    27450.0  2.615E+02  1.820E+06
      2747    27460.0  2.615E+02  1.822E+06
      2748    27470.0  2.619E+02  1.825E+06
      2749    27480.0  2.621E+02  1.828E+06
      2750    27490.0  2.623E+02  1.830E+06
      2751    27500.0  2.626E+02  1.833E+06
      2752    27510.0  2.630E+02  1.836E+06
      2753    27520.0  2.632E+02  1.838E+06
      2754    27530.0  2.638E+02  1.841E+06
      2755    27540.0  2.638E+02  1.843E+06
      2756    27550.0  2.640E+02  1.846E+06
      2757    27560.0  2.640E+02  1.849E+06
      2758    27570.0  2.643E+02  1.851E+06
      2759    27580.0  2.646E+02  1.854E+06
      2760    27590.0  2.648E+02  1.857E+06
      2761    27600.0  2.650E+02  1.859E+06
      2762    27610.0  2.652E+02  1.862E+06
      2763    27620.0  2.657E+02  1.865E+06
      2764    27630.0  2.659E+02  1.867E+06
      2765    27640.0  2.660E+02  1.870E+06
      2766    27650.0  2.661E+02  1.873E+06
      2767    27660.0  2.672E+02  1.875E+06
      2768    27670.0  2.674E+02  1.878E+06
      2769    27680.0  2.674E+02  1.881E+06
      2770    27690.0  2.681E+02  1.883E+06
      2771    27700.0  2.683E+02  1.886E+06
      2772    27710.0  2.687E+02  1.889E+06
      2773    27720.0  2.693E+02  1.891E+06
      2774    27730.0  2.696E+02  1.894E+06
      2775    27740.0  2.699E+02  1.897E+06
      2776    27750.0  2.702E+02  1.899E+06
      2777    27760.0  2.704E+02  1.902E+06
      2778    27770.0  2.710E+02  1.905E+06
      2779    27780.0  2.715E+02  1.908E+06
      2780    27790.0  2.717E+02  1.910E+06
      2781    27800.0  2.718E+02  1.913E+06
      2782    27810.0  2.721E+02  1.916E+06
      2783    27820.0  2.725E+02  1.919E+06
      2784    27830.0  2.729E+02  1.921E+06
      2785    27840.0  2.730E+02  1.924E+06
      2786    27850.0  2.735E+02  1.927E+06
      2787    27860.0  2.739E+02  1.929E+06
      2788    27870.0  2.742E+02  1.932E+06
      2789    27880.0  2.745E+02  1.935E+06
      2790    27890.0  2.747E+02  1.938E+06
      2791    27900.0  2.750E+02  1.940E+06
      2792    27910.0  2.751E+02  1.943E+06
      2793    27920.0  2.754E+02  1.946E+06
      2794    27930.0  2.758E+02  1.949E+06
      2795    27940.0  2.761E+02  1.951E+06
      2796    27950.0  2.764E+02  1.954E+06
      2797    27960.0  2.766E+02  1.957E+06
      2798    27970.0  2.770E+02  1.960E+06
      2799    27980.0  2.772E+02  1.963E+06
      2800    27990.0  2.775E+02  1.965E+06
      2801    28000.0  2.779E+02  1.968E+06
      2802    28010.0  2.781E+02  1.971E+06
      2803    28020.0  2.782E+02  1.974E+06
      2804    28030.0  2.782E+02  1.976E+06
      2805    28040.0  2.785E+02  1.979E+06
      2806    28050.0  2.788E+02  1.982E+06
      2807    28060.0  2.789E+02  1.985E+06
      2808    28070.0  2.791E+02  1.988E+06
      2809    28080.0  2.795E+02  1.990E+06
      2810    28090.0  2.801E+02  1.993E+06
      2811    28100.0  2.803E+02  1.996E+06
      2812    28110.0  2.805E+02  1.999E+06
      2813    28120.0  2.809E+02  2.002E+06
      2814    28130.0  2.812E+02  2.004E+06
      2815    28140.0  2.817E+02  2.007E+06
      2816    28150.0  2.821E+02  2.010E+06
      2817    28160.0  2.825E+02  2.013E+06
      2818    28170.0  2.827E+02  2.016E+06
      2819    28180.0  2.832E+02  2.019E+06
      2820    28190.0  2.836E+02  2.021E+06
      2821    28200.0  2.839E+02  2.024E+06
      2822    28210.0  2.842E+02  2.027E+06
      2823    28220.0  2.846E+02  2.030E+06
      2824    28230.0  2.849E+02  2.033E+06
      2825    28240.0  2.853E+02  2.036E+06
      2826    28250.0  2.859E+02  2.038E+06
      2827    28260.0  2.863E+02  2.041E+06
      2828    28270.0  2.865E+02  2.044E+06
      2829    28280.0  2.867E+02  2.047E+06
      2830    28290.0  2.867E+02  2.050E+06
      2831    28300.0  2.870E+02  2.053E+06
      2832    28310.0  2.874E+02  2.056E+06
      2833    28320.0  2.878E+02  2.059E+06
      2834    28330.0  2.880E+02  2.061E+06
      2835    28340.0  2.884E+02  2.064E+06
      2836    28350.0  2.885E+02  2.067E+06
      2837    28360.0  2.887E+02  2.070E+06
      2838    28370.0  2.888E+02  2.073E+06
      2839    28380.0  2.894E+02  2.076E+06
      2840    28390.0  2.897E+02  2.079E+06
      2841    28400.0  2.898E+02  2.082E+06
      2842    28410.0  2.902E+02  2.085E+06
      2843    28420.0  2.903E+02  2.087E+06
      2844    28430.0  2.908E+02  2.090E+06
      2845    28440.0  3.031E+02  2.093E+06
      2846    28450.0  2.966E+02  2.096E+06
      2847    28460.0  2.958E+02  2.099E+06
      2848    28470.0  2.954E+02  2.102E+06
      2849    28480.0  2.957E+02  2.105E+06
      2850    28490.0  2.958E+02  2.108E+06
      2851    28500.0  2.959E+02  2.111E+06
      2852    28510.0  2.959E+02  2.114E+06
      2853    28520.0  2.962E+02  2.117E+06
      2854    28530.0  2.962E+02  2.120E+06
      2855    28540.0  2.965E+02  2.123E+06
      2856    28550.0  2.967E+02  2.126E+06
      2857    28560.0  2.969E+02  2.129E+06
      2858    28570.0  2.969E+02  2.132E+06
      2859    28580.0  2.974E+02  2.135E+06
      2860    28590.0  2.979E+02  2.138E+06
      2861    28600.0  2.983E+02  2.141E+06
      2862    28610.0  2.984E+02  2.144E+06
      2863    28620.0  2.986E+02  2.147E+06
      2864    28630.0  2.988E+02  2.150E+06
      2865    28640.0  2.989E+02  2.153E+06
      2866    28650.0  2.990E+02  2.156E+06
      2867    28660.0  2.993E+02  2.159E+06
      2868    28670.0  2.995E+02  2.162E+06
      2869    28680.0  2.997E+02  2.165E+06
      2870    28690.0  3.001E+02  2.168E+06
      2871    28700.0  3.006E+02  2.171E+06
      2872    28710.0  3.009E+02  2.174E+06
      2873    28720.0  3.015E+02  2.177E+06
      2874    28730.0  3.021E+02  2.180E+06
      2875    28740.0  3.025E+02  2.183E+06
      2876    28750.0  3.026E+02  2.186E+06
      2877    28760.0  3.032E+02  2.189E+06
      2878    28770.0  3.034E+02  2.192E+06
      2879    28780.0  3.041E+02  2.195E+06
      2880    28790.0  3.042E+02  2.198E+06
      2881    28800.0  3.042E+02  2.201E+06
      2882    28810.0  3.044E+02  2.204E+06
      2883    28820.0  3.045E+02  2.207E+06
      2884    28830.0  3.049E+02  2.210E+06
      2885    28840.0  3.054E+02  2.213E+06
      2886    28850.0  3.060E+02  2.216E+06
      2887    28860.0  3.061E+02  2.219E+06
      2888    28870.0  3.063E+02  2.222E+06
      2889    28880.0  3.065E+02  2.225E+06
      2890    28890.0  3.074E+02  2.229E+06
      2891    28900.0  3.077E+02  2.232E+06
      2892    28910.0  3.080E+02  2.235E+06
      2893    28920.0  3.084E+02  2.238E+06
      2894    28930.0  3.089E+02  2.241E+06
      2895    28940.0  3.093E+02  2.244E+06
      2896    28950.0  3.098E+02  2.247E+06
      2897    28960.0  3.100E+02  2.250E+06
      2898    28970.0  3.103E+02  2.253E+06
      2899    28980.0  3.107E+02  2.256E+06
      2900    28990.0  3.110E+02  2.259E+06
      2901    29000.0  3.113E+02  2.263E+06
      2902    29010.0  3.115E+02  2.266E+06
      2903    29020.0  3.119E+02  2.269E+06
      2904    29030.0  3.121E+02  2.272E+06
      2905    29040.0  3.123E+02  2.275E+06
      2906    29050.0  3.128E+02  2.278E+06
      2907    29060.0  3.130E+02  2.281E+06
      2908    29070.0  3.134E+02  2.284E+06
      2909    29080.0  3.138E+02  2.288E+06
      2910    29090.0  3.141E+02  2.291E+06
      2911    29100.0  3.144E+02  2.294E+06
      2912    29110.0  3.147E+02  2.297E+06
      2913    29120.0  3.149E+02  2.300E+06
      2914    29130.0  3.151E+02  2.303E+06
      2915    29140.0  3.153E+02  2.307E+06
      2916    29150.0  3.156E+02  2.310E+06
      2917    29160.0  3.163E+02  2.313E+06
      2918    29170.0  3.167E+02  2.316E+06
      2919    29180.0  3.172E+02  2.319E+06
      2920    29190.0  3.175E+02  2.322E+06
      2921    29200.0  3.179E+02  2.326E+06
      2922    29210.0  3.181E+02  2.329E+06
      2923    29220.0  3.186E+02  2.332E+06
      2924    29230.0  3.190E+02  2.335E+06
      2925    29240.0  3.193E+02  2.338E+06
      2926    29250.0  3.196E+02  2.341E+06
      2927    29260.0  3.198E+02  2.345E+06
      2928    29270.0  3.200E+02  2.348E+06
      2929    29280.0  3.200E+02  2.351E+06
      2930    29290.0  3.204E+02  2.354E+06
      2931    29300.0  3.206E+02  2.357E+06
      2932    29310.0  3.209E+02  2.361E+06
      2933    29320.0  3.212E+02  2.364E+06
      2934    29330.0  3.213E+02  2.367E+06
      2935    29340.0  3.221E+02  2.370E+06
      2936    29350.0  3.226E+02  2.374E+06
      2937    29360.0  3.229E+02  2.377E+06
      2938    29370.0  3.235E+02  2.380E+06
      2939    29380.0  3.242E+02  2.383E+06
      2940    29390.0  3.246E+02  2.387E+06
      2941    29400.0  3.250E+02  2.390E+06
      2942    29410.0  3.252E+02  2.393E+06
      2943    29420.0  3.254E+02  2.396E+06
      2944    29430.0  3.257E+02  2.400E+06
      2945    29440.0  3.262E+02  2.403E+06
      2946    29450.0  3.266E+02  2.406E+06
      2947    29460.0  3.271E+02  2.409E+06
      2948    29470.0  3.274E+02  2.413E+06
      2949    29480.0  3.278E+02  2.416E+06
      2950    29490.0  3.282E+02  2.419E+06
      2951    29500.0  3.288E+02  2.422E+06
      2952    29510.0  3.290E+02  2.426E+06
      2953    29520.0  3.292E+02  2.429E+06
      2954    29530.0  3.296E+02  2.432E+06
      2955    29540.0  3.301E+02  2.436E+06
      2956    29550.0  3.306E+02  2.439E+06
      2957    29560.0  3.309E+02  2.442E+06
      2958    29570.0  3.310E+02  2.446E+06
      2959    29580.0  3.315E+02  2.449E+06
      2960    29590.0  3.319E+02  2.452E+06
      2961    29600.0  3.444E+02  2.456E+06
      2962    29610.0  3.374E+02  2.459E+06
      2963    29620.0  3.364E+02  2.462E+06
      2964    29630.0  3.361E+02  2.466E+06
      2965    29640.0  3.361E+02  2.469E+06
      2966    29650.0  3.361E+02  2.472E+06
      2967    29660.0  3.362E+02  2.476E+06
      2968    29670.0  3.361E+02  2.479E+06
      2969    29680.0  3.366E+02  2.483E+06
      2970    29690.0  3.368E+02  2.486E+06
      2971    29700.0  3.371E+02  2.489E+06
      2972    29710.0  3.374E+02  2.493E+06
      2973    29720.0  3.376E+02  2.496E+06
      2974    29730.0  3.379E+02  2.499E+06
      2975    29740.0  3.383E+02  2.503E+06
      2976    29750.0  3.391E+02  2.506E+06
      2977    29760.0  3.393E+02  2.510E+06
      2978    29770.0  3.397E+02  2.513E+06
      2979    29780.0  3.402E+02  2.516E+06
      2980    29790.0  3.402E+02  2.520E+06
      2981    29800.0  3.403E+02  2.523E+06
      2982    29810.0  3.406E+02  2.527E+06
      2983    29820.0  3.410E+02  2.530E+06
      2984    29830.0  3.415E+02  2.533E+06
      2985    29840.0  3.417E+02  2.537E+06
      2986    29850.0  3.420E+02  2.540E+06
      2987    29860.0  3.424E+02  2.544E+06
      2988    29870.0  3.427E+02  2.547E+06
      2989    29880.0  3.430E+02  2.551E+06
      2990    29890.0  3.433E+02  2.554E+06
      2991    29900.0  3.436E+02  2.557E+06
      2992    29910.0  3.439E+02  2.561E+06
      2993    29920.0  3.443E+02  2.564E+06
      2994    29930.0  3.447E+02  2.568E+06
      2995    29940.0  3.454E+02  2.571E+06
      2996    29950.0  3.457E+02  2.575E+06
      2997    29960.0  3.458E+02  2.578E+06
      2998    29970.0  3.461E+02  2.582E+06
      2999    29980.0  3.464E+02  2.585E+06
      3000    29990.0  3.468E+02  2.588E+06
      3001        0.0  7.720E-44  7.720E-43
      3002       50.1  1.425E-01  8.902E+00
      3003      100.1  2.754E-01  2.432E+01
      3004      150.2  1.014E+00  4.292E+01
      3005      200.2  3.201E-01  6.273E+01
      3006      250.3  6.975E-01  9.168E+01
      3007      300.3  4.265E-01  1.163E+02
      3008      350.4  3.504E-01  1.352E+02
      3009      400.4  6.181E-01  1.808E+02
      3010      450.5  4.914E-01  2.074E+02
      3011      500.5  1.986E+00  2.455E+02
      3012      550.6  7.197E-01  2.882E+02
      3013      600.6  5.975E-01  3.202E+02
      3014      650.7  5.314E-01  3.480E+02
      3015      700.7  9.104E-01  4.133E+02
      3016      750.8  7.440E-01  4.532E+02
      3017      800.8  6.614E-01  4.878E+02
      3018      850.9  2.643E+00  5.395E+02
      3019      900.9  1.000E+00  5.981E+02
      3020      951.0  8.478E-01  6.430E+02
      3021     1001.0  7.654E-01  6.828E+02
      3022     1051.1  2.985E+00  7.420E+02
      3023     1101.1  1.152E+00  8.091E+02
      3024     1151.2  9.829E-01  8.611E+02
      3025     1201.2  8.919E-01  9.074E+02
      3026     1251.3  8.296E-01  9.500E+02
      3027     1301.3  1.824E+00  1.026E+03
      3028     1351.4  1.237E+00  1.095E+03
      3029     1401.4  1.083E+00  1.151E+03
      3030     1451.5  9.938E-01  1.203E+03
      3031     1501.5  9.314E-01  1.250E+03
      3032     1551.6  2.024E+00  1.334E+03
      3033     1601.6  1.389E+00  1.411E+03
      3034     1651.7  1.235E+00  1.476E+03
      3035     1701.7  1.162E+00  1.536E+03
      3036     1751.8  1.127E+00  1.593E+03
      3037     1801.8  1.074E+00  1.648E+03
      3038     1851.9  1.874E+00  1.761E+03
      3039     1901.9  1.548E+00  1.844E+03
      3040     1952.0  1.461E+00  1.918E+03
      3041     2002.0  1.372E+00  1.988E+03
      3042     2052.1  1.306E+00  2.055E+03
      3043     2102.1  1.314E+00  2.120E+03
      3044     2152.2  2.135E+00  2.249E+03
      3045     2202.2  1.785E+00  2.344E+03
      3046     2252.3  1.706E+00  2.430E+03
      3047     2302.3  1.610E+00  2.512E+03
      3048     2352.4  1.539E+00  2.590E+03
      3049     2402.4  1.482E+00  2.665E+03
      3050     2452.5  4.987E+00  2.775E+03
      3051     2502.5  2.213E+00  2.900E+03
      3052     2552.6  1.970E+00  3.002E+03
      3053     2602.6  1.842E+00  3.097E+03
      3054     2652.7  1.842E+00  3.189E+03
      3055     2702.7  1.773E+00  3.279E+03
      3056     2752.8  1.717E+00  3.366E+03
      3057     2802.8  5.381E+00  3.487E+03
      3058     2852.9  2.418E+00  3.623E+03
      3059     2902.9  2.259E+00  3.739E+03
      3060     2953.0  2.122E+00  3.848E+03
      3061     3003.0  2.028E+00  3.951E+03
      3062     3053.1  1.956E+00  4.050E+03
      3063     3103.1  1.896E+00  4.146E+03
      3064     3153.2  1.953E+00  4.244E+03
      3065     3203.2  2.980E+00  4.420E+03
      3066     3253.3  2.576E+00  4.555E+03
      3067     3303.3  2.423E+00  4.678E+03
      3068     3353.4  2.310E+00  4.796E+03
      3069     3403.4  2.375E+00  4.910E+03
      3070     3453.5  2.306E+00  5.027E+03
      3071     3503.5  2.248E+00  5.140E+03
      3072     3553.6  2.235E+00  5.253E+03
      3073     3603.6  3.179E+00  5.457E+03
      3074     3653.7  2.877E+00  5.605E+03
      3075     3703.7  2.844E+00  5.745E+03
      3076     3753.8  2.745E+00  5.884E+03
      3077     3803.8  2.689E+00  6.020E+03
      3078     3853.9  2.687E+00  6.155E+03
      3079     3903.9  2.671E+00  6.289E+03
      3080     3954.0  2.618E+00  6.421E+03
      3081     4004.0  4.095E+00  6.629E+03
      3082     4054.1  3.587E+00  6.814E+03
      3083     4104.1  3.362E+00  6.987E+03
      3084     4154.2  3.292E+00  7.153E+03
      3085     4204.2  3.259E+00  7.315E+03
      3086     4254.3  3.217E+00  7.476E+03
      3087     4304.3  3.190E+00  7.636E+03
      3088     4354.4  3.130E+00  7.793E+03
      3089     4404.4  3.222E+00  7.953E+03
      3090     4454.5  4.541E+00  8.209E+03
      3091     4504.5  4.090E+00  8.420E+03
      3092     4554.6  3.880E+00  8.618E+03
      3093     4604.6  3.797E+00  8.808E+03
      3094     4654.7  3.696E+00  8.995E+03
      3095     4704.7  3.758E+00  9.181E+03
      3096     4754.8  3.857E+00  9.368E+03
      3097     4804.8  3.850E+00  9.560E+03
      3098     4854.9  3.812E+00  9.751E+03
      3099     4904.9  5.319E+00  1.003E+04
      3100     4955.0  4.688E+00  1.027E+04
      3101     5005.0  4.527E+00  1.050E+04
      3102     5055.1  4.469E+00  1.072E+04
      3103     5105.1  4.358E+00  1.094E+04
      3104     5155.2  4.432E+00  1.116E+04
      3105     5205.2  4.453E+00  1.138E+04
      3106     5255.3  4.394E+00  1.161E+04
      3107     5305.3  4.507E+00  1.183E+04
      3108     5355.4  4.502E+00  1.205E+04
      3109     5405.4  5.858E+00  1.238E+04
      3110     5455.5  5.402E+00  1.266E+04
      3111     5505.5  5.188E+00  1.292E+04
      3112     5555.6  5.089E+00  1.318E+04
      3113     5605.6  5.376E+00  1.344E+04
      3114     5655.7  5.282E+00  1.371E+04
      3115     5705.7  5.228E+00  1.397E+04
      3116     5755.8  5.316E+00  1.423E+04
      3117     5805.8  5.250E+00  1.450E+04
      3118     5855.9  5.222E+00  1.476E+04
      3119     5905.9  6.996E+00  1.512E+04
      3120     5956.0  6.324E+00  1.544E+04
      3121     6006.0  6.331E+00  1.575E+04
      3122     6056.1  6.160E+00  1.606E+04
      3123     6106.1  6.156E+00  1.637E+04
      3124     6156.2  6.053E+00  1.668E+04
      3125     6206.2  6.104E+00  1.698E+04
      3126     6256.3  6.103E+00  1.729E+04
      3127     6306.3  6.080E+00  1.759E+04
      3128     6356.4  6.147E+00  1.790E+04
      3129     6406.4  6.133E+00  1.821E+04
      3130     6456.5  7.688E+00  1.863E+04
      3131     6506.5  7.405E+00  1.900E+04
      3132     6556.6  7.267E+00  1.937E+04
      3133     6606.6  7.101E+00  1.972E+04
      3134     6656.7  7.028E+00  2.008E+04
      3135     6706.7  6.955E+00  2.043E+04
      3136     6756.8  7.047E+00  2.078E+04
      3137     6806.8  7.141E+00  2.113E+04
      3138     6856.9  7.112E+00  2.149E+04
      3139     6906.9  7.125E+00  2.184E+04
      3140     6957.0  7.371E+00  2.221E+04
      3141     7007.0  8.898E+00  2.269E+04
      3142     7057.1  8.390E+00  2.312E+04
      3143     7107.1  8.143E+00  2.353E+04
      3144     7157.2  8.269E+00  2.394E+04
      3145     7207.2  8.233E+00  2.435E+04
      3146     7257.3  8.233E+00  2.476E+04
      3147     7307.3  8.157E+00  2.517E+04
      3148     7357.4  8.258E+00  2.558E+04
      3149     7407.4  8.222E+00  2.600E+04
      3150     7457.5  8.274E+00  2.641E+04
      3151     7507.5  8.580E+00  2.684E+04
      3152     7557.6  1.467E+01  2.733E+04
      3153     7607.6  1.001E+01  2.785E+04
      3154     7657.7  9.709E+00  2.834E+04
      3155     7707.7  9.586E+00  2.883E+04
      3156     7757.8  9.662E+00  2.931E+04
      3157     7807.8  9.683E+00  2.979E+04
      3158     7857.9  9.697E+00  3.028E+04
      3159     7907.9  9.649E+00  3.076E+04
      3160     7958.0  9.629E+00  3.124E+04
      3161     8008.0  9.850E+00  3.173E+04
      3162     8058.1  1.018E+01  3.223E+04
      3163     8108.1  1.017E+01  3.274E+04
      3164     8158.2  1.024E+01  3.325E+04
      3165     8208.2  1.179E+01  3.390E+04
      3166     8258.3  1.139E+01  3.448E+04
      3167     8308.3  1.135E+01  3.505E+04
      3168     8358.4  1.118E+01  3.561E+04
      3169     8408.4  1.118E+01  3.617E+04
      3170     8458.5  1.109E+01  3.672E+04
      3171     8508.5  1.120E+01  3.728E+04
      3172     8558.6  1.165E+01  3.785E+04
      3173     8608.6  1.161E+01  3.844E+04
      3174     8658.7  1.186E+01  3.902E+04
      3175     8708.7  1.192E+01  3.962E+04
      3176     8758.8  1.191E+01  4.021E+04
      3177     8808.8  1.409E+01  4.093E+04
      3178     8858.9  1.314E+01  4.160E+04
      3179     8908.9  1.299E+01  4.225E+04
      3180     8959.0  1.291E+01  4.290E+04
      3181     9009.0  1.307E+01  4.355E+04
      3182     9059.1  1.321E+01  4.420E+04
      3183     9109.1  1.323E+01  4.486E+04
      3184     9159.2  1.356E+01  4.554E+04
      3185     9209.2  1.370E+01  4.622E+04
      3186     9259.3  1.371E+01  4.690E+04
      3187     9309.3  1.381E+01  4.759E+04
      3188     9359.4  1.398E+01  4.828E+04
      3189     9409.4  1.392E+01  4.898E+04
      3190     9459.5  1.615E+01  4.979E+04
      3191     9509.5  1.517E+01  5.057E+04
      3192     9559.6  1.524E+01  5.132E+04
      3193     9609.6  1.522E+01  5.209E+04
      3194     9659.7  1.540E+01  5.285E+04
      3195     9709.7  1.542E+01  5.363E+04
      3196     9759.8  1.581E+01  5.440E+04
      3197     9809.8  1.578E+01  5.519E+04
      3198     9859.9  1.575E+01  5.598E+04
      3199     9909.9  1.576E+01  5.677E+04
      3200     9960.0  1.579E+01  5.756E+04
      3201    10010.0  1.581E+01  5.851E+04
      3202    10060.1  1.615E+01  5.931E+04
      3203    10110.1  2.345E+01  6.020E+04
      3204    10160.2  1.807E+01  6.113E+04
      3205    10210.2  1.794E+01  6.202E+04
      3206    10260.3  1.773E+01  6.291E+04
      3207    10310.3  1.766E+01  6.380E+04
      3208    10360.4  1.794E+01  6.468E+04
      3209    10410.4  1.796E+01  6.558E+04
      3210    10460.5  1.800E+01  6.648E+04
      3211    10510.5  1.803E+01  6.738E+04
      3212    10560.6  1.813E+01  6.828E+04
      3213    10610.6  1.856E+01  6.920E+04
      3214    10660.7  1.852E+01  7.013E+04
      3215    10710.7  1.883E+01  7.106E+04
      3216    10760.8  1.907E+01  7.201E+04
      3217    10810.8  2.231E+01  7.308E+04
      3218    10860.9  2.086E+01  7.414E+04
      3219    10910.9  2.056E+01  7.517E+04
      3220    10961.0  2.041E+01  7.619E+04
      3221    11011.0  2.060E+01  7.721E+04
      3222    11061.1  2.064E+01  7.824E+04
      3223    11111.1  2.086E+01  7.928E+04
      3224    11161.2  2.096E+01  8.033E+04
      3225    11211.2  2.153E+01  8.139E+04
      3226    11261.3  2.149E+01  8.247E+04
      3227    11311.3  2.191E+01  8.355E+04
      3228    11361.4  2.194E+01  8.465E+04
      3229    11411.4  2.203E+01  8.575E+04
      3230    11461.5  2.205E+01  8.685E+04
      3231    11511.5  2.209E+01  8.795E+04
      3232    11561.6  2.418E+01  8.924E+04
      3233    11611.6  2.377E+01  9.043E+04
      3234    11661.7  2.399E+01  9.162E+04
      3235    11711.7  2.409E+01  9.283E+04
      3236    11761.8  2.425E+01  9.403E+04
      3237    11811.8  2.433E+01  9.525E+04
      3238    11861.9  2.456E+01  9.647E+04
      3239    11911.9  2.469E+01  9.770E+04
      3240    11962.0  2.503E+01  9.895E+04
      3241    12012.0  2.501E+01  1.002E+05
      3242    12062.1  2.530E+01  1.015E+05
      3243    12112.1  2.531E+01  1.027E+05
      3244    12162.2  2.552E+01  1.040E+05
      3245    12212.2  2.567E+01  1.053E+05
      3246    12262.3  3.384E+01  1.067E+05
      3247    12312.3  2.812E+01  1.081E+05
      3248    12362.4  2.776E+01  1.095E+05
      3249    12412.4  2.795E+01  1.109E+05
      3250    12462.5  2.787E+01  1.123E+05
      3251    12512.5  2.796E+01  1.137E+05
      3252    12562.6  2.823E+01  1.151E+05
      3253    12612.6  2.870E+01  1.165E+05
      3254    12662.7  2.885E+01  1.179E+05
      3255    12712.7  2.883E+01  1.194E+05
      3256    12762.8  2.930E+01  1.208E+05
      3257    12812.8  2.946E+01  1.223E+05
      3258    12862.9  2.974E+01  1.238E+05
      3259    12912.9  2.991E+01  1.253E+05
      3260    12963.0  2.995E+01  1.268E+05
      3261    13013.0  3.007E+01  1.283E+05
      3262    13063.1  3.258E+01  1.299E+05
      3263    13113.1  3.244E+01  1.316E+05
      3264    13163.2  3.237E+01  1.332E+05
      3265    13213.2  3.253E+01  1.348E+05
      3266    13263.3  3.275E+01  1.364E+05
      3267    13313.3  3.301E+01  1.381E+05
      3268    13363.4  3.298E+01  1.397E+05
      3269    13413.4  3.323E+01  1.414E+05
      3270    13463.5  3.346E+01  1.430E+05
      3271    13513.5  3.385E+01  1.447E+05
      3272    13563.6  3.381E+01  1.464E+05
      3273    13613.6  3.390E+01  1.481E+05
      3274    13663.7  3.437E+01  1.498E+05
      3275    13713.7  3.429E+01  1.515E+05
      3276    13763.8  3.488E+01  1.533E+05
      3277    13813.8  3.504E+01  1.550E+05
      3278    13863.9  3.789E+01  1.570E+05
      3279    13913.9  3.740E+01  1.589E+05
      3280    13964.0  3.741E+01  1.607E+05
      3281    14014.0  3.759E+01  1.626E+05
      3282    14064.1  3.759E+01  1.645E+05
      3283    14114.1  3.805E+01  1.664E+05
      3284    14164.2  3.843E+01  1.683E+05
      3285    14214.2  3.852E+01  1.702E+05
      3286    14264.3  3.883E+01  1.722E+05
      3287    14314.3  3.915E+01  1.741E+05
      3288    14364.4  3.934E+01  1.761E+05
      3289    14414.4  3.956E+01  1.780E+05
      3290    14464.5  4.002E+01  1.800E+05
      3291    14514.5  4.005E+01  1.820E+05
      3292    14564.6  4.031E+01  1.840E+05
      3293    14614.6  4.095E+01  1.861E+05
      3294    14664.7  4.367E+01  1.883E+05
      3295    14714.7  4.337E+01  1.905E+05
      3296    14764.8  4.351E+01  1.927E+05
      3297    14814.8  4.386E+01  1.948E+05
      3298    14864.9  4.382E+01  1.970E+05
      3299    14914.9  4.395E+01  1.992E+05
      3300    14965.0  4.455E+01  2.014E+05
      3301    15015.0  4.455E+01  2.037E+05
      3302    15065.1  4.481E+01  2.059E+05
      3303    15115.1  4.495E+01  2.082E+05
      3304    15165.2  4.541E+01  2.104E+05
      3305    15215.2  4.570E+01  2.127E+05
      3306    15265.3  4.590E+01  2.150E+05
      3307    15315.3  4.613E+01  2.173E+05
      3308    15365.4  4.689E+01  2.196E+05
      3309    15415.4  4.778E+01  2.220E+05
      3310    15465.5  4.789E+01  2.244E+05
      3311    15515.5  5.046E+01  2.270E+05
      3312    15565.6  5.010E+01  2.295E+05
      3313    15615.6  5.026E+01  2.320E+05
      3314    15665.7  5.033E+01  2.345E+05
      3315    15715.7  5.070E+01  2.371E+05
      3316    15765.8  5.093E+01  2.396E+05
      3317    15815.8  5.132E+01  2.422E+05
      3318    15865.9  5.159E+01  2.447E+05
      3319    15915.9  5.180E+01  2.473E+05
      3320    15966.0  5.224E+01  2.499E+05
      3321    16016.0  5.273E+01  2.525E+05
      3322    16066.1  5.306E+01  2.552E+05
      3323    16116.1  5.320E+01  2.578E+05
      3324    16166.2  5.375E+01  2.605E+05
      3325    16216.2  5.509E+01  2.632E+05
      3326    16266.3  5.544E+01  2.660E+05
      3327    16316.3  5.582E+01  2.688E+05
      3328    16366.4  5.850E+01  2.718E+05
      3329    16416.4  5.786E+01  2.747E+05
      3330    16466.5  5.776E+01  2.776E+05
      3331    16516.5  5.799E+01  2.805E+05
      3332    16566.6  5.827E+01  2.834E+05
      3333    16616.6  5.863E+01  2.863E+05
      3334    16666.7  5.893E+01  2.892E+05
      3335    16716.7  5.939E+01  2.922E+05
      3336    16766.8  5.969E+01  2.952E+05
      3337    16816.8  6.016E+01  2.982E+05
      3338    16866.9  6.075E+01  3.012E+05
      3339    16916.9  6.113E+01  3.042E+05
      3340    16967.0  6.154E+01  3.073E+05
      3341    17017.0  6.218E+01  3.104E+05
      3342    17067.1  6.293E+01  3.135E+05
      3343    17117.1  6.333E+01  3.167E+05
      3344    17167.2  6.398E+01  3.199E+05
      3345    17217.2  7.351E+01  3.232E+05
      3346    17267.3  6.658E+01  3.265E+05
      3347    17317.3  6.664E+01  3.299E+05
      3348    17367.4  6.657E+01  3.332E+05
      3349    17417.4  6.665E+01  3.365E+05
      3350    17467.5  6.703E+01  3.399E+05
      3351    17517.5  6.731E+01  3.432E+05
      3352    17567.6  6.799E+01  3.466E+05
      3353    17617.6  6.890E+01  3.501E+05
      3354    17667.7  6.940E+01  3.535E+05
      3355    17717.7  7.034E+01  3.570E+05
      3356    17767.8  7.059E+01  3.605E+05
      3357    17817.8  7.106E+01  3.641E+05
      3358    17867.9  7.150E+01  3.677E+05
      3359    17917.9  7.214E+01  3.712E+05
      3360    17968.0  7.243E+01  3.749E+05
      3361    18018.0  7.318E+01  3.785E+05
      3362    18068.1  7.356E+01  3.822E+05
      3363    18118.1  8.333E+01  3.860E+05
      3364    18168.2  7.625E+01  3.898E+05
      3365    18218.2  7.652E+01  3.936E+05
      3366    18268.3  7.706E+01  3.975E+05
      3367    18318.3  7.710E+01  4.013E+05
      3368    18368.4  7.736E+01  4.052E+05
      3369    18418.4  7.824E+01  4.091E+05
      3370    18468.5  7.897E+01  4.130E+05
      3371    18518.5  7.972E+01  4.170E+05
      3372    18568.6  7.992E+01  4.210E+05
      3373    18618.6  8.039E+01  4.250E+05
      3374    18668.7  8.111E+01  4.290E+05
      3375    18718.7  8.144E+01  4.331E+05
      3376    18768.8  8.220E+01  4.372E+05
      3377    18818.8  8.291E+01  4.413E+05
      3378    18868.9  8.341E+01  4.455E+05
      3379    18918.9  8.383E+01  4.497E+05
      3380    18969.0  8.431E+01  4.539E+05
      3381    19019.0  8.464E+01  4.581E+05
      3382    19069.1  8.850E+01  4.625E+05
      3383    19119.1  8.800E+01  4.669E+05
      3384    19169.2  8.866E+01  4.713E+05
      3385    19219.2  8.895E+01  4.758E+05
      3386    19269.3  8.967E+01  4.803E+05
      3387    19319.3  9.014E+01  4.848E+05
      3388    19369.4  9.058E+01  4.893E+05
      3389    19419.4  9.106E+01  4.938E+05
      3390    19469.5  9.160E+01  4.984E+05
      3391    19519.5  9.218E+01  5.030E+05
      3392    19569.6  9.291E+01  5.076E+05
      3393    19619.6  9.338E+01  5.123E+05
      3394    19669.7  9.370E+01  5.170E+05
      3395    19719.7  9.451E+01  5.217E+05
      3396    19769.8  9.509E+01  5.264E+05
      3397    19819.8  9.588E+01  5.312E+05
      3398    19869.9  9.660E+01  5.360E+05
      3399    19919.9  9.759E+01  5.409E+05
      3400    19970.0  9.860E+01  5.458E+05
      3401    20020.0  1.016E+02  5.519E+05
      3402    20070.1  1.013E+02  5.570E+05
      3403    20120.1  1.017E+02  5.620E+05
      3404    20170.2  1.022E+02  5.672E+05
      3405    20220.2  1.029E+02  5.723E+05
      3406    20270.3  1.033E+02  5.774E+05
      3407    20320.3  1.038E+02  5.826E+05
      3408    20370.4  1.043E+02  5.878E+05
      3409    20420.4  1.049E+02  5.930E+05
      3410    20470.5  1.055E+02  5.983E+05
      3411    20520.5  1.063E+02  6.036E+05
      3412    20570.6  1.073E+02  6.090E+05
      3413    20620.6  1.084E+02  6.143E+05
      3414    20670.7  1.090E+02  6.198E+05
      3415    20720.7  1.101E+02  6.253E+05
      3416    20770.8  1.106E+02  6.308E+05
      3417    20820.8  1.114E+02  6.363E+05
      3418    20870.9  1.122E+02  6.419E+05
      3419    20920.9  1.125E+02  6.476E+05
      3420    20971.0  1.235E+02  6.533E+05
      3421    21021.0  1.165E+02  6.592E+05
      3422    21071.1  1.168E+02  6.650E+05
      3423    21121.1  1.173E+02  6.708E+05
      3424    21171.2  1.174E+02  6.767E+05
      3425    21221.2  1.178E+02  6.826E+05
      3426    21271.3  1.188E+02  6.885E+05
      3427    21321.3  1.196E+02  6.945E+05
      3428    21371.4  1.203E+02  7.005E+05
      3429    21421.4  1.214E+02  7.065E+05
      3430    21471.5  1.222E+02  7.126E+05
      3431    21521.5  1.228E+02  7.188E+05
      3432    21571.6  1.241E+02  7.249E+05
      3433    21621.6  1.248E+02  7.312E+05
      3434    21671.7  1.257E+02  7.374E+05
      3435    21721.7  1.259E+02  7.437E+05
      3436    21771.8  1.265E+02  7.500E+05
      3437    21821.8  1.276E+02  7.564E+05
      3438    21871.9  1.286E+02  7.628E+05
      3439    21921.9  1.295E+02  7.693E+05
      3440    21972.0  1.408E+02  7.759E+05
      3441    22022.0  1.336E+02  7.826E+05
      3442    22072.1  1.338E+02  7.892E+05
      3443    22122.1  1.348E+02  7.960E+05
      3444    22172.2  1.352E+02  8.027E+05
      3445    22222.2  1.362E+02  8.095E+05
      3446    22272.3  1.369E+02  8.163E+05
      3447    22322.3  1.377E+02  8.232E+05
      3448    22372.4  1.379E+02  8.301E+05
      3449    22422.4  1.386E+02  8.370E+05
      3450    22472.5  1.393E+02  8.440E+05
      3451    22522.5  1.403E+02  8.510E+05
      3452    22572.6  1.417E+02  8.580E+05
      3453    22622.6  1.428E+02  8.652E+05
      3454    22672.7  1.435E+02  8.723E+05
      3455    22722.7  1.444E+02  8.795E+05
      3456    22772.8  1.450E+02  8.867E+05
      3457    22822.8  1.469E+02  8.941E+05
      3458    22872.9  1.480E+02  9.014E+05
      3459    22922.9  1.489E+02  9.089E+05
      3460    22973.0  1.495E+02  9.163E+05
      3461    23023.0  1.534E+02  9.241E+05
      3462    23073.1  1.528E+02  9.317E+05
      3463    23123.1  1.533E+02  9.394E+05
      3464    23173.2  1.537E+02  9.470E+05
      3465    23223.2  1.547E+02  9.548E+05
      3466    23273.3  1.550E+02  9.625E+05
      3467    23323.3  1.562E+02  9.703E+05
      3468    23373.4  1.577E+02  9.781E+05
      3469    23423.4  1.585E+02  9.861E+05
      3470    23473.5  1.594E+02  9.940E+05
      3471    23523.5  1.605E+02  1.002E+06
      3472    23573.6  1.622E+02  1.010E+06
      3473    23623.6  1.635E+02  1.018E+06
      3474    23673.7  1.641E+02  1.026E+06
      3475    23723.7  1.652E+02  1.035E+06
      3476    23773.8  1.664E+02  1.043E+06
      3477    23823.8  1.671E+02  1.051E+06
      3478    23873.9  1.682E+02  1.060E+06
      3479    23923.9  1.688E+02  1.068E+06
      3480    23974.0  1.698E+02  1.077E+06
      3481    24024.0  1.706E+02  1.085E+06
      3482    24074.1  1.743E+02  1.094E+06
      3483    24124.1  1.754E+02  1.103E+06
      3484    24174.2  1.754E+02  1.111E+06
      3485    24224.2  1.766E+02  1.120E+06
      3486    24274.3  1.780E+02  1.129E+06
      3487    24324.3  1.787E+02  1.138E+06
      3488    24374.4  1.795E+02  1.147E+06
      3489    24424.4  1.807E+02  1.156E+06
      3490    24474.5  1.820E+02  1.165E+06
      3491    24524.5  1.827E+02  1.174E+06
      3492    24574.6  1.842E+02  1.183E+06
      3493    24624.6  1.853E+02  1.193E+06
      3494    24674.7  1.861E+02  1.202E+06
      3495    24724.7  1.871E+02  1.211E+06
      3496    24774.8  1.884E+02  1.221E+06
      3497    24824.8  1.897E+02  1.230E+06
      3498    24874.9  1.913E+02  1.240E+06
      3499    24924.9  1.920E+02  1.249E+06
      3500    24975.0  1.932E+02  1.259E+06
      3501    25025.0  1.944E+02  1.268E+06
      3502    25075.1  1.952E+02  1.278E+06
      3503    25125.1  2.002E+02  1.288E+06
      3504    25175.2  1.993E+02  1.298E+06
      3505    25225.2  2.005E+02  1.308E+06
      3506    25275.3  2.013E+02  1.318E+06
      3507    25325.3  2.026E+02  1.328E+06
      3508    25375.4  2.038E+02  1.339E+06
      3509    25425.4  2.048E+02  1.349E+06
      3510    25475.5  2.055E+02  1.359E+06
      3511    25525.5  2.067E+02  1.369E+06
      3512    25575.6  2.079E+02  1.380E+06
      3513    25625.6  2.099E+02  1.390E+06
      3514    25675.7  2.114E+02  1.401E+06
      3515    25725.7  2.128E+02  1.411E+06
      3516    25775.8  2.138E+02  1.422E+06
      3517    25825.8  2.147E+02  1.433E+06
      3518    25875.9  2.156E+02  1.443E+06
      3519    25925.9  2.168E+02  1.454E+06
      3520    25976.0  2.178E+02  1.465E+06
      3521    26026.0  2.190E+02  1.476E+06
      3522    26076.1  2.202E+02  1.487E+06
      3523    26126.1  2.214E+02  1.498E+06
      3524    26176.2  2.235E+02  1.509E+06
      3525    26226.2  2.283E+02  1.521E+06
      3526    26276.3  2.289E+02  1.532E+06
      3527    26326.3  2.294E+02  1.544E+06
      3528    26376.4  2.306E+02  1.555E+06
      3529    26426.4  2.315E+02  1.567E+06
      3530    26476.5  2.329E+02  1.578E+06
      3531    26526.5  2.339E+02  1.590E+06
      3532    26576.6  2.347E+02  1.602E+06
      3533    26626.6  2.356E+02  1.613E+06
      3534    26676.7  2.372E+02  1.625E+06
      3535    26726.7  2.390E+02  1.637E+06
      3536    26776.8  2.408E+02  1.649E+06
      3537    26826.8  2.420E+02  1.661E+06
      3538    26876.9  2.434E+02  1.673E+06
      3539    26926.9  2.445E+02  1.686E+06
      3540    26977.0  2.462E+02  1.698E+06
      3541    27027.0  2.476E+02  1.710E+06
      3542    27077.1  2.494E+02  1.723E+06
      3543    27127.1  2.505E+02  1.735E+06
      3544    27177.2  2.520E+02  1.748E+06
      3545    27227.2  2.537E+02  1.760E+06
      3546    27277.3  2.546E+02  1.773E+06
      3547    27327.3  2.611E+02  1.786E+06
      3548    27377.4  2.594E+02  1.799E+06
      3549    27427.4  2.602E+02  1.812E+06
      3550    27477.5  2.619E+02  1.825E+06
      3551    27527.5  2.632E+02  1.838E+06
      3552    27577.6  2.643E+02  1.851E+06
      3553    27627.6  2.657E+02  1.865E+06
      3554    27677.7  2.674E+02  1.878E+06
      3555    27727.7  2.693E+02  1.891E+06
      3556    27777.8  2.710E+02  1.905E+06
      3557    27827.8  2.725E+02  1.919E+06
      3558    27877.9  2.742E+02  1.932E+06
      3559    27927.9  2.754E+02  1.946E+06
      3560    27978.0  2.770E+02  1.960E+06
      3561    28028.0  2.782E+02  1.974E+06
      3562    28078.1  2.791E+02  1.988E+06
      3563    28128.1  2.809E+02  2.002E+06
      3564    28178.2  2.827E+02  2.016E+06
      3565    28228.2  2.846E+02  2.030E+06
      3566    28278.3  2.865E+02  2.044E+06
      3567    28328.3  2.878E+02  2.059E+06
      3568    28378.4  2.888E+02  2.073E+06
      3569    28428.4  2.903E+02  2.087E+06
      3570    28478.5  2.954E+02  2.102E+06
      3571    28528.5  2.962E+02  2.117E+06
      3572    28578.6  2.969E+02  2.132E+06
      3573    28628.6  2.986E+02  2.147E+06
      3574    28678.7  2.995E+02  2.162E+06
      3575    28728.7  3.015E+02  2.177E+06
      3576    28778.8  3.034E+02  2.192E+06
      3577    28828.8  3.045E+02  2.207E+06
      3578    28878.9  3.063E+02  2.222E+06
      3579    28928.9  3.084E+02  2.238E+06
      3580    28979.0  3.103E+02  2.253E+06
      3581    29029.0  3.119E+02  2.269E+06
      3582    29079.1  3.134E+02  2.284E+06
      3583    29129.1  3.149E+02  2.300E+06
      3584    29179.2  3.167E+02  2.316E+06
      3585    29229.2  3.186E+02  2.332E+06
      3586    29279.3  3.200E+02  2.348E+06
      3587    29329.3  3.212E+02  2.364E+06
      3588    29379.4  3.235E+02  2.380E+06
      3589    29429.4  3.254E+02  2.396E+06
      3590    29479.5  3.274E+02  2.413E+06
      3591    29529.5  3.292E+02  2.429E+06
      3592    29579.6  3.310E+02  2.446E+06
      3593    29629.6  3.364E+02  2.462E+06
      3594    29679.7  3.361E+02  2.479E+06
      3595    29729.7  3.376E+02  2.496E+06
      3596    29779.8  3.397E+02  2.513E+06
      3597    29829.8  3.410E+02  2.530E+06
      3598    29879.9  3.427E+02  2.547E+06
      3599    29929.9  3.443E+02  2.564E+06
      3600    29980.0  3.461E+02  2.582E+06
      3601    30030.0  3.483E+02  2.602E+06
      3602    30080.1  3.503E+02  2.620E+06
      3603    30130.1  3.517E+02  2.637E+06
      3604    30180.2  3.534E+02  2.655E+06
      3605    30230.2  3.559E+02  2.673E+06
      3606    30280.3  3.581E+02  2.691E+06
      3607    30330.3  3.603E+02  2.709E+06
      3608    30380.4  3.620E+02  2.727E+06
      3609    30430.4  3.639E+02  2.745E+06
      3610    30480.5  3.668E+02  2.763E+06
      3611    30530.5  3.679E+02  2.782E+06
      3612    30580.6  3.691E+02  2.800E+06
      3613    30630.6  3.707E+02  2.818E+06
      3614    30680.7  3.724E+02  2.837E+06
      3615    30730.7  3.745E+02  2.856E+06
      3616    30780.8  3.767E+02  2.874E+06
      3617    30830.8  3.818E+02  2.894E+06
      3618    30880.9  3.834E+02  2.913E+06
      3619    30930.9  3.853E+02  2.932E+06
      3620    30981.0  3.876E+02  2.951E+06
      3621    31031.0  3.891E+02  2.971E+06
      3622    31081.1  3.903E+02  2.990E+06
      3623    31131.1  3.916E+02  3.010E+06
      3624    31181.2  3.939E+02  3.029E+06
      3625    31231.2  3.960E+02  3.049E+06
      3626    31281.3  3.990E+02  3.069E+06
      3627    31331.3  4.010E+02  3.089E+06
      3628    31381.4  4.031E+02  3.109E+06
      3629    31431.4  4.048E+02  3.129E+06
      3630    31481.5  4.063E+02  3.150E+06
      3631    31531.5  4.084E+02  3.170E+06
      3632    31581.6  4.107E+02  3.191E+06
      3633    31631.6  4.130E+02  3.211E+06
      3634    31681.7  4.152E+02  3.232E+06
      3635    31731.7  4.176E+02  3.253E+06
      3636    31781.8  4.197E+02  3.274E+06
      3637    31831.8  4.222E+02  3.295E+06
      3638    31881.9  4.245E+02  3.316E+06
      3639    31931.9  4.261E+02  3.337E+06
      3640    31982.0  4.283E+02  3.359E+06
      3641    32032.0  4.327E+02  3.380E+06
      3642    32082.1  4.344E+02  3.402E+06
      3643    32132.1  4.362E+02  3.424E+06
      3644    32182.2  4.386E+02  3.446E+06
      3645    32232.2  4.404E+02  3.468E+06
      3646    32282.3  4.423E+02  3.490E+06
      3647    32332.3  4.449E+02  3.512E+06
      3648    32382.4  4.472E+02  3.534E+06
      3649    32432.4  4.497E+02  3.557E+06
      3650    32482.5  4.517E+02  3.579E+06
      3651    32532.5  4.541E+02  3.602E+06
      3652    32582.6  4.565E+02  3.625E+06
      3653    32632.6  4.582E+02  3.648E+06
      3654    32682.7  4.613E+02  3.671E+06
      3655    32732.7  4.637E+02  3.694E+06
      3656    32782.8  4.665E+02  3.717E+06
      3657    32832.8  4.689E+02  3.740E+06
      3658    32882.9  4.703E+02  3.764E+06
      3659    32932.9  4.718E+02  3.787E+06
      3660    32983.0  4.747E+02  3.811E+06
      3661    33033.0  4.771E+02  3.835E+06
      3662    33083.1  4.796E+02  3.859E+06
      3663    33133.1  4.822E+02  3.883E+06
      3664    33183.2  4.844E+02  3.907E+06
      3665    33233.2  4.917E+02  3.932E+06
      3666    33283.3  4.920E+02  3.956E+06
      3667    33333.3  4.935E+02  3.981E+06
      3668    33383.4  4.962E+02  4.006E+06
      3669    33433.4  4.984E+02  4.030E+06
      3670    33483.5  5.015E+02  4.055E+06
      3671    33533.5  5.032E+02  4.081E+06
      3672    33583.6  5.066E+02  4.106E+06
      3673    33633.6  5.081E+02  4.131E+06
      3674    33683.7  5.104E+02  4.157E+06
      3675    33733.7  5.125E+02  4.182E+06
      3676    33783.8  5.156E+02  4.208E+06
      3677    33833.8  5.180E+02  4.234E+06
      3678    33883.9  5.211E+02  4.260E+06
      3679    33933.9  5.231E+02  4.286E+06
      3680    33984.0  5.257E+02  4.312E+06
      3681    34034.0  5.282E+02  4.339E+06
      3682    34084.1  5.313E+02  4.365E+06
      3683    34134.1  5.337E+02  4.392E+06
      3684    34184.2  5.371E+02  4.418E+06
      3685    34234.2  5.396E+02  4.445E+06
      3686    34284.3  5.417E+02  4.472E+06
      3687    34334.3  5.439E+02  4.500E+06
      3688    34384.4  5.464E+02  4.527E+06
      3689    34434.4  5.492E+02  4.554E+06
      3690    34484.5  5.645E+02  4.582E+06
      3691    34534.5  5.568E+02  4.610E+06
      3692    34584.6  5.587E+02  4.638E+06
      3693    34634.6  5.619E+02  4.666E+06
      3694    34684.7  5.652E+02  4.694E+06
      3695    34734.7  5.676E+02  4.722E+06
      3696    34784.8  5.711E+02  4.751E+06
      3697    34834.8  5.740E+02  4.779E+06
      3698    34884.9  5.761E+02  4.808E+06
      3699    34934.9  5.780E+02  4.837E+06
      3700    34985.0  5.808E+02  4.866E+06
      3701    35035.0  5.838E+02  4.895E+06
      3702    35085.1  5.862E+02  4.924E+06
      3703    35135.1  5.895E+02  4.954E+06
      3704    35185.2  5.923E+02  4.983E+06
      3705    35235.2  5.955E+02  5.013E+06
      3706    35285.3  5.981E+02  5.043E+06
      3707    35335.3  6.006E+02  5.073E+06
      3708    35385.4  6.031E+02  5.103E+06
      3709    35435.4  6.067E+02  5.133E+06
      3710    35485.5  6.093E+02  5.164E+06
      3711    35535.5  6.115E+02  5.194E+06
      3712    35585.6  6.150E+02  5.225E+06
      3713    35635.6  6.188E+02  5.256E+06
      3714    35685.7  6.218E+02  5.287E+06
      3715    35735.7  6.243E+02  5.318E+06
      3716    35785.8  6.311E+02  5.349E+06
      3717    35835.8  6.326E+02  5.381E+06
      3718    35885.9  6.348E+02  5.413E+06
      3719    35935.9  6.372E+02  5.445E+06
      3720    35986.0  6.397E+02  5.476E+06
      3721    36036.0  6.433E+02  5.509E+06
      3722    36086.1  6.468E+02  5.541E+06
      3723    36136.1  6.513E+02  5.573E+06
      3724    36186.2  6.543E+02  5.606E+06
      3725    36236.2  6.564E+02  5.639E+06
      3726    36286.3  6.590E+02  5.672E+06
      3727    36336.3  6.615E+02  5.705E+06
      3728    36386.4  6.653E+02  5.738E+06
      3729    36436.4  6.686E+02  5.771E+06
      3730    36486.5  6.724E+02  5.805E+06
      3731    36536.5  6.750E+02  5.839E+06
      3732    36586.6  6.773E+02  5.872E+06
      3733    36636.6  6.802E+02  5.906E+06
      3734    36686.7  6.838E+02  5.940E+06
      3735    36736.7  6.874E+02  5.975E+06
      3736    36786.8  6.899E+02  6.009E+06
      3737    36836.8  6.936E+02  6.044E+06
      3738    36886.9  6.972E+02  6.079E+06
      3739    36936.9  7.006E+02  6.114E+06
      3740    36987.0  7.041E+02  6.149E+06
      3741    37037.0  7.079E+02  6.184E+06
      3742    37087.1  7.145E+02  6.220E+06
      3743    37137.1  7.163E+02  6.256E+06
      3744    37187.2  7.193E+02  6.291E+06
      3745    37237.2  7.221E+02  6.327E+06
      3746    37287.3  7.247E+02  6.364E+06
      3747    37337.3  7.291E+02  6.400E+06
      3748    37387.4  7.320E+02  6.437E+06
      3749    37437.4  7.358E+02  6.473E+06
      3750    37487.5  7.387E+02  6.510E+06
      3751    37537.5  7.421E+02  6.547E+06
      3752    37587.6  7.455E+02  6.584E+06
      3753    37637.6  7.503E+02  6.622E+06
      3754    37687.7  7.536E+02  6.659E+06
      3755    37737.7  7.555E+02  6.697E+06
      3756    37787.8  7.591E+02  6.735E+06
      3757    37837.8  7.623E+02  6.773E+06
      3758    37887.9  7.656E+02  6.811E+06
      3759    37937.9  7.699E+02  6.850E+06
      3760    37988.0  7.738E+02  6.888E+06
      3761    38038.0  7.774E+02  6.927E+06
      3762    38088.1  7.801E+02  6.966E+06
      3763    38138.1  7.836E+02  7.005E+06
      3764    38188.2  7.880E+02  7.045E+06
      3765    38238.2  7.923E+02  7.084E+06
      3766    38288.3  7.961E+02  7.124E+06
      3767    38338.3  7.990E+02  7.164E+06
      3768    38388.4  8.168E+02  7.204E+06
      3769    38438.4  8.108E+02  7.244E+06
      3770    38488.5  8.134E+02  7.285E+06
      3771    38538.5  8.159E+02  7.326E+06
      3772    38588.6  8.195E+02  7.367E+06
      3773    38638.6  8.234E+02  7.408E+06
      3774    38688.7  8.270E+02  7.449E+06
      3775    38738.7  8.301E+02  7.490E+06
      3776    38788.8  8.333E+02  7.532E+06
      3777    38838.8  8.369E+02  7.574E+06
      3778    38888.9  8.415E+02  7.616E+06
      3779    38938.9  8.460E+02  7.658E+06
      3780    38989.0  8.496E+02  7.700E+06
      3781    39039.0  8.532E+02  7.743E+06
      3782    39089.1  8.573E+02  7.786E+06
      3783    39139.1  8.611E+02  7.829E+06
      3784    39189.2  8.655E+02  7.872E+06
      3785    39239.2  8.686E+02  7.915E+06
      3786    39289.3  8.725E+02  7.959E+06
      3787    39339.3  8.761E+02  8.003E+06
      3788    39389.4  8.803E+02  8.047E+06
      3789    39439.4  8.854E+02  8.091E+06
      3790    39489.5  8.888E+02  8.135E+06
      3791    39539.5  8.933E+02  8.180E+06
      3792    39589.6  8.972E+02  8.224E+06
      3793    39639.6  9.015E+02  8.269E+06
      3794    39689.7  9.055E+02  8.315E+06
      3795    39739.7  9.157E+02  8.360E+06
      3796    39789.8  9.164E+02  8.406E+06
      3797    39839.8  9.201E+02  8.452E+06
      3798    39889.9  9.232E+02  8.498E+06
      3799    39939.9  9.267E+02  8.544E+06
      3800    39990.0  9.313E+02  8.591E+06
      3801    40040.0  9.362E+02  8.647E+06
      3802    40090.1  9.405E+02  8.694E+06
      3803    40140.1  9.447E+02  8.741E+06
      3804    40190.2  9.481E+02  8.788E+06
      3805    40240.2  9.534E+02  8.836E+06
      3806    40290.3  9.577E+02  8.884E+06
      3807    40340.3  9.619E+02  8.932E+06
      3808    40390.4  9.659E+02  8.980E+06
      3809    40440.4  9.715E+02  9.028E+06
      3810    40490.5  9.745E+02  9.077E+06
      3811    40540.5  9.790E+02  9.126E+06
      3812    40590.6  9.832E+02  9.175E+06
      3813    40640.6  9.876E+02  9.224E+06
      3814    40690.7  9.935E+02  9.274E+06
      3815    40740.7  9.974E+02  9.324E+06
      3816    40790.8  1.002E+03  9.374E+06
      3817    40840.8  1.006E+03  9.424E+06
      3818    40890.9  1.010E+03  9.474E+06
      3819    40940.9  1.014E+03  9.525E+06
      3820    40991.0  1.018E+03  9.576E+06
      3821    41041.0  1.023E+03  9.627E+06
      3822    41091.1  1.043E+03  9.678E+06
      3823    41141.1  1.036E+03  9.730E+06
      3824    41191.2  1.039E+03  9.782E+06
      3825    41241.2  1.044E+03  9.834E+06
      3826    41291.3  1.048E+03  9.886E+06
      3827    41341.3  1.053E+03  9.939E+06
      3828    41391.4  1.058E+03  9.992E+06
      3829    41441.4  1.062E+03  1.004E+07
      3830    41491.5  1.067E+03  1.010E+07
      3831    41541.5  1.072E+03  1.015E+07
      3832    41591.6  1.076E+03  1.021E+07
      3833    41641.6  1.081E+03  1.026E+07
      3834    41691.7  1.085E+03  1.031E+07
      3835    41741.7  1.091E+03  1.037E+07
      3836    41791.8  1.096E+03  1.042E+07
      3837    41841.8  1.100E+03  1.048E+07
      3838    41891.9  1.105E+03  1.053E+07
      3839    41941.9  1.109E+03  1.059E+07
      3840    41992.0  1.113E+03  1.064E+07
      3841    42042.0  1.119E+03  1.070E+07
      3842    42092.1  1.125E+03  1.076E+07
      3843    42142.1  1.130E+03  1.081E+07
      3844    42192.2  1.135E+03  1.087E+07
      3845    42242.2  1.139E+03  1.093E+07
      3846    42292.3  1.145E+03  1.098E+07
      3847    42342.3  1.150E+03  1.104E+07
      3848    42392.4  1.155E+03  1.110E+07
      3849    42442.4  1.160E+03  1.116E+07
      3850    42492.5  1.170E+03  1.121E+07
      3851    42542.5  1.172E+03  1.127E+07
      3852    42592.6  1.176E+03  1.133E+07
      3853    42642.6  1.181E+03  1.139E+07
      3854    42692.7  1.187E+03  1.145E+07
      3855    42742.7  1.192E+03  1.151E+07
      3856    42792.8  1.197E+03  1.157E+07
      3857    42842.8  1.202E+03  1.163E+07
      3858    42892.9  1.208E+03  1.169E+07
      3859    42942.9  1.213E+03  1.175E+07
      3860    42993.0  1.218E+03  1.181E+07
      3861    43043.0  1.223E+03  1.187E+07
      3862    43093.1  1.228E+03  1.193E+07
      3863    43143.1  1.234E+03  1.199E+07
      3864    43193.2  1.238E+03  1.206E+07
      3865    43243.2  1.244E+03  1.212E+07
      3866    43293.3  1.249E+03  1.218E+07
      3867    43343.3  1.255E+03  1.224E+07
      3868    43393.4  1.260E+03  1.231E+07
      3869    43443.4  1.265E+03  1.237E+07
      3870    43493.5  1.271E+03  1.243E+07
      3871    43543.5  1.277E+03  1.250E+07
      3872    43593.6  1.282E+03  1.256E+07
      3873    43643.6  1.289E+03  1.262E+07
      3874    43693.7  1.294E+03  1.269E+07
      3875    43743.7  1.299E+03  1.275E+07
      3876    43793.8  1.305E+03  1.282E+07
      3877    43843.8  1.310E+03  1.288E+07
      3878    43893.9  1.315E+03  1.295E+07
      3879    43943.9  1.324E+03  1.302E+07
      3880    43994.0  1.328E+03  1.308E+07
      3881    44044.0  1.335E+03  1.315E+07
      3882    44094.1  1.340E+03  1.322E+07
      3883    44144.1  1.346E+03  1.328E+07
      3884    44194.2  1.352E+03  1.335E+07
      3885    44244.2  1.358E+03  1.342E+07
      3886    44294.3  1.363E+03  1.349E+07
      3887    44344.3  1.369E+03  1.355E+07
      3888    44394.4  1.374E+03  1.362E+07
      3889    44444.4  1.380E+03  1.369E+07
      3890    44494.5  1.386E+03  1.376E+07
      3891    44544.5  1.394E+03  1.383E+07
      3892    44594.6  1.399E+03  1.390E+07
      3893    44644.6  1.404E+03  1.397E+07
      3894    44694.7  1.409E+03  1.404E+07
      3895    44744.7  1.416E+03  1.411E+07
      3896    44794.8  1.422E+03  1.418E+07
      3897    44844.8  1.428E+03  1.425E+07
      3898    44894.9  1.435E+03  1.433E+07
      3899    44944.9  1.441E+03  1.440E+07
      3900    44995.0  1.447E+03  1.447E+07
      3901    45045.0  1.453E+03  1.454E+07
      3902    45095.1  1.459E+03  1.462E+07
      3903    45145.1  1.465E+03  1.469E+07
      3904    45195.2  1.470E+03  1.476E+07
      3905    45245.2  1.477E+03  1.484E+07
      3906    45295.3  1.483E+03  1.491E+07
      3907    45345.3  1.504E+03  1.498E+07
      3908    45395.4  1.499E+03  1.506E+07
      3909    45445.4  1.504E+03  1.513E+07
      3910    45495.5  1.512E+03  1.521E+07
      3911    45545.5  1.518E+03  1.529E+07
      3912    45595.6  1.523E+03  1.536E+07
      3913    45645.6  1.530E+03  1.544E+07
      3914    45695.7  1.536E+03  1.551E+07
      3915    45745.7  1.542E+03  1.559E+07
      3916    45795.8  1.549E+03  1.567E+07
      3917    45845.8  1.555E+03  1.575E+07
      3918    45895.9  1.562E+03  1.582E+07
      3919    45945.9  1.567E+03  1.590E+07
      3920    45996.0  1.574E+03  1.598E+07
      3921    46046.0  1.581E+03  1.606E+07
      3922    46096.1  1.588E+03  1.614E+07
      3923    46146.1  1.594E+03  1.622E+07
      3924    46196.2  1.599E+03  1.630E+07
      3925    46246.2  1.608E+03  1.638E+07
      3926    46296.3  1.615E+03  1.646E+07
      3927    46346.3  1.622E+03  1.654E+07
      3928    46396.4  1.628E+03  1.662E+07
      3929    46446.4  1.634E+03  1.670E+07
      3930    46496.5  1.641E+03  1.679E+07
      3931    46546.5  1.647E+03  1.687E+07
      3932    46596.6  1.655E+03  1.695E+07
      3933    46646.6  1.662E+03  1.703E+07
      3934    46696.7  1.669E+03  1.712E+07
      3935    46746.7  1.676E+03  1.720E+07
      3936    46796.8  1.683E+03  1.728E+07
      3937    46846.8  1.692E+03  1.737E+07
      3938    46896.9  1.699E+03  1.745E+07
      3939    46946.9  1.707E+03  1.754E+07
      3940    46997.0  1.714E+03  1.762E+07
      3941    47047.0  1.721E+03  1.771E+07
      3942    47097.1  1.727E+03  1.780E+07
      3943    47147.1  1.734E+03  1.788E+07
      3944    47197.2  1.741E+03  1.797E+07
      3945    47247.2  1.747E+03  1.806E+07
      3946    47297.3  1.754E+03  1.814E+07
      3947    47347.3  1.762E+03  1.823E+07
      3948    47397.4  1.769E+03  1.832E+07
      3949    47447.4  1.777E+03  1.841E+07
      3950    47497.5  1.783E+03  1.850E+07
      3951    47547.5  1.791E+03  1.859E+07
      3952    47597.6  1.799E+03  1.868E+07
      3953    47647.6  1.806E+03  1.877E+07
      3954    47697.7  1.815E+03  1.886E+07
      3955    47747.7  1.822E+03  1.895E+07
      3956    47797.8  1.830E+03  1.904E+07
      3957    47847.8  1.836E+03  1.913E+07
      3958    47897.9  1.844E+03  1.922E+07
      3959    47947.9  1.852E+03  1.932E+07
      3960    47998.0  1.860E+03  1.941E+07
      3961    48048.0  1.867E+03  1.950E+07
      3962    48098.1  1.874E+03  1.960E+07
      3963    48148.1  1.881E+03  1.969E+07
      3964    48198.2  1.888E+03  1.978E+07
      3965    48248.2  1.896E+03  1.988E+07
      3966    48298.3  1.920E+03  1.997E+07
      3967    48348.3  1.916E+03  2.007E+07
      3968    48398.4  1.924E+03  2.017E+07
      3969    48448.4  1.930E+03  2.026E+07
      3970    48498.5  1.938E+03  2.036E+07
      3971    48548.5  1.946E+03  2.046E+07
      3972    48598.6  1.952E+03  2.055E+07
      3973    48648.6  1.959E+03  2.065E+07
      3974    48698.7  1.969E+03  2.075E+07
      3975    48748.7  1.977E+03  2.085E+07
      3976    48798.8  1.985E+03  2.095E+07
      3977    48848.8  1.994E+03  2.105E+07
      3978    48898.9  2.002E+03  2.115E+07
      3979    48948.9  2.011E+03  2.125E+07
      3980    48999.0  2.019E+03  2.135E+07
      3981    49049.0  2.026E+03  2.145E+07
      3982    49099.1  2.034E+03  2.155E+07
      3983    49149.1  2.042E+03  2.165E+07
      3984    49199.2  2.050E+03  2.176E+07
      3985    49249.2  2.060E+03  2.186E+07
      3986    49299.3  2.068E+03  2.196E+07
      3987    49349.3  2.076E+03  2.207E+07
      3988    49399.4  2.084E+03  2.217E+07
      3989    49449.4  2.092E+03  2.227E+07
      3990    49499.5  2.099E+03  2.238E+07
      3991    49549.5  2.107E+03  2.248E+07
      3992    49599.6  2.116E+03  2.259E+07
      3993    49649.6  2.124E+03  2.270E+07
      3994    49699.7  2.133E+03  2.280E+07
      3995    49749.7  2.143E+03  2.291E+07
      3996    49799.8  2.151E+03  2.302E+07
      3997    49849.8  2.162E+03  2.312E+07
      3998    49899.9  2.170E+03  2.323E+07
      3999    49949.9  2.178E+03  2.334E+07
      4000    50000.0  2.190E+03  2.347E+07
